ISI.started,ISI.stopped,aa_green_onset,aa_test_onset,conditions,cue_stim.started,cue_stim.stopped,date,expName,expStart,fixation_cross_ISI.started,fixation_cross_port.started,fixation_cross_port.stopped,frameRate,go_port.started,go_port.stopped,instruction_keys.duration,instruction_keys.keys,instruction_keys.rt,instruction_keys.started,instructions.started,instructions.stopped,instructions_message.started,mic.clip,mic.started,mic.stopped,notes,participant,probe,probe_duration,probe_intensity,probe_marker,probe_marker_port.started,probe_marker_port.stopped,probe_onset,probe_onset_cat,probe_stim.started,probe_stim.stopped,probe_type,psychopyVersion,stim_file,subj,subject_id,target_stim.started,target_stim.stopped,task,task_marker,task_msg.started,task_msg.stopped,task_port.started,task_port.stopped,thisN,thisRepN,thisRow.t,thisTrialN,trial.started,trial.stopped,trials.mic.clip,trials.thisIndex,trials.thisN,trials.thisRepN,trials.thisTrialN,welcome.started,welcome.stopped,welcome_message.started,welcome_message.stopped,
,,,,C:\Experiments\tid_psam\psam\data\BIDS\stimuli\sub-99\sub-99_conditions.xlsx,,,2025-03-24_12h13.39.302,tid_psam_main_experiment,2025-03-24 12h13.43.426465 +0100,,,,60.01197838428649,,,,,,,,,,,,,,99,,,,,,,,,,,,2024.2.4,,,sub-99,,,,,,,,,,,,,,,,,,,,0.0030158000299707055,1.4969828000757843,0.01351680001243949,1.515539100044407,
,,,,,,,2025-03-24_12h13.39.302,tid_psam_main_experiment,2025-03-24 12h13.43.426465 +0100,,,,60.01197838428649,,,None,space,1.033217400079593,1.515539100044407,1.497004700009711,2.5650207001017407,1.515539100044407,,,,,99,,,,,,,,,,,,2024.2.4,,,,,,,,,,,,,,,,,,,,,,,,,,,
2.692585200071335,3.7301867000060156,3.0329970000311732,3.0163862999761477,,3.749927300028503,8.296425500069745,2025-03-24_12h13.39.302,tid_psam_main_experiment,2025-03-24 12h13.43.426465 +0100,2.6975116000976413,0.12756240007001907,0.6149960000766441,60.01197838428649,2.9995493999449536,3.9995775000425056,,,,,,,,C:\Experiments\tid_psam\psam\experiment_script\..\data\BIDS\sub-99\beh\sub-99_tid_psam_main_experiment_2025-03-24_12h13.39.302_mic_recorded\recording_mic_2025-03-24_12h13.51.701.wav,2.4997866000048816,3.9995775000425056,,99,No,0,0,99,0.0034152999287471175,0.0034152999287471175,0,None,3.746660966721053,3.749927300028503,None,2024.2.4,None,sub-99,,3.749927300028503,6.763169200043194,Active,21,3.749927300028503,8.263142900075763,0.0034152999287471175,1.0163994999602437,0,0,2.6975116000976413,0,3.7335862000472844,8.280067600077018,C:\Experiments\tid_psam\psam\experiment_script\..\data\BIDS\sub-99\beh\sub-99_tid_psam_main_experiment_2025-03-24_12h13.39.302_mic_recorded\recording_mic_2025-03-24_12h13.51.701.wav,0,0,0,0,,,,,
8.280572100076824,9.62984510010574,3.035177699988708,3.001837100018747,,9.646343400003389,14.196058300090954,2025-03-24_12h13.39.302,tid_psam_main_experiment,2025-03-24 12h13.43.426465 +0100,8.729728300007991,-0.0004428999964147806,0.5016305999597535,60.01197838428649,3.001837100018747,3.999520199955441,,,,,,,,C:\Experiments\tid_psam\psam\experiment_script\..\data\BIDS\sub-99\beh\sub-99_tid_psam_main_experiment_2025-03-24_12h13.39.302_mic_recorded\recording_mic_2025-03-24_12h13.57.600.wav,2.4996716000605375,3.999520199955441,,99,Yes,0.08,1,32,2.799691000021994,2.8857985000358894,2.8,Early,12.431607066715758,12.51562850002665,Pitch,2024.2.4,C:\Experiments\tid_psam\psam\data\BIDS\stimuli\sub-99\sub-99_pitch_probe.wav,sub-99,,9.646343400003389,12.646120200050063,Active,21,9.646343400003389,14.148212300031446,0.0005620999727398157,0.9997646999545395,1,0,8.296425500069745,1,9.63039619999472,14.179772600065917,C:\Experiments\tid_psam\psam\experiment_script\..\data\BIDS\sub-99\beh\sub-99_tid_psam_main_experiment_2025-03-24_12h13.39.302_mic_recorded\recording_mic_2025-03-24_12h13.57.600.wav,1,1,0,1,,,,,
14.180178000009619,15.496165900025517,3.035120000015013,3.016300999908708,,15.51484210009221,20.064567400026135,2025-03-24_12h13.39.302,tid_psam_main_experiment,2025-03-24 12h13.43.426465 +0100,14.6315546000842,0.0017228999640792608,0.516176600009203,60.01197838428649,2.9995866999961436,4.00172089994885,,,,,,,,C:\Experiments\tid_psam\psam\experiment_script\..\data\BIDS\sub-99\beh\sub-99_tid_psam_main_experiment_2025-03-24_12h13.39.302_mic_recorded\recording_mic_2025-03-24_12h14.03.465.wav,2.5017298000166193,4.00172089994885,,99,No,0,0,99,5.5999960750341415e-05,5.5999960750341415e-05,0,None,15.512546166723284,15.51484210009221,None,2024.2.4,None,sub-99,,15.51484210009221,18.531273500062525,Active,21,15.51484210009221,20.029154799995013,5.5999960750341415e-05,1.018569799955003,2,0,14.196058300090954,2,15.496214300044812,20.04610700008925,C:\Experiments\tid_psam\psam\experiment_script\..\data\BIDS\sub-99\beh\sub-99_tid_psam_main_experiment_2025-03-24_12h13.39.302_mic_recorded\recording_mic_2025-03-24_12h14.03.465.wav,2,2,0,2,,,,,
20.04652500001248,21.745789600070566,3.0184306000592187,3.001748100039549,,21.762193400063552,26.297498800093308,2025-03-24_12h13.39.302,tid_psam_main_experiment,2025-03-24 12h13.43.426465 +0100,20.495550599996932,-0.0006032000528648496,0.4995401999913156,60.01197838428649,3.001748100039549,4.001721000066027,,,,,,,,C:\Experiments\tid_psam\psam\experiment_script\..\data\BIDS\sub-99\beh\sub-99_tid_psam_main_experiment_2025-03-24_12h13.39.302_mic_recorded\recording_mic_2025-03-24_12h14.09.696.wav,2.4996367000276223,4.001721000066027,,99,Yes,0.08,1,31,2.7996149000246078,2.899615600006655,2.8,Early,24.54551556666071,24.628694000071846,Normal,2024.2.4,C:\Experiments\tid_psam\psam\data\BIDS\stimuli\sub-99\sub-99_normal_probe.wav,sub-99,,21.762193400063552,24.764188900007866,Active,21,21.762193400063552,26.264104000059888,0.0003291000612080097,1.00194129999727,3,0,20.064567400026135,3,21.746111200074665,26.2789083000971,C:\Experiments\tid_psam\psam\experiment_script\..\data\BIDS\sub-99\beh\sub-99_tid_psam_main_experiment_2025-03-24_12h13.39.302_mic_recorded\recording_mic_2025-03-24_12h14.09.696.wav,3,3,0,3,,,,,
26.279325400013477,28.062076700036414,3.0184940999606624,3.0018128999508917,,28.078541700029746,32.6116430000402,2025-03-24_12h13.39.302,tid_psam_main_experiment,2025-03-24 12h13.43.426465 +0100,26.745324600022286,-0.0004518999485298991,0.5161387000698596,60.01197838428649,3.0018128999508917,4.018386999960057,,,,,,,,C:\Experiments\tid_psam\psam\experiment_script\..\data\BIDS\sub-99\beh\sub-99_tid_psam_main_experiment_2025-03-24_12h13.39.302_mic_recorded\recording_mic_2025-03-24_12h14.16.013.wav,2.4997000999283046,4.018386999960057,,99,No,0,0,99,5.979998968541622e-05,5.979998968541622e-05,0,None,28.078546266715662,28.078541700029746,None,2024.2.4,None,sub-99,,28.078541700029746,31.08054970006924,Active,21,28.078541700029746,32.578336400096305,5.979998968541622e-05,1.0018592999549583,4,0,26.297498800093308,4,28.062128900084645,32.59758300008252,C:\Experiments\tid_psam\psam\experiment_script\..\data\BIDS\sub-99\beh\sub-99_tid_psam_main_experiment_2025-03-24_12h13.39.302_mic_recorded\recording_mic_2025-03-24_12h14.16.013.wav,4,4,0,4,,,,,
32.598011500085704,34.461699700099416,3.016396899940446,3.016396899940446,,34.478228699998,39.0134644000791,2025-03-24_12h13.39.302,tid_psam_main_experiment,2025-03-24 12h13.43.426465 +0100,33.0616175000323,-0.0004480000352486968,0.501581099932082,60.01197838428649,2.9996897999662906,3.9996881999541074,,,,,,,,C:\Experiments\tid_psam\psam\experiment_script\..\data\BIDS\sub-99\beh\sub-99_tid_psam_main_experiment_2025-03-24_12h13.39.302_mic_recorded\recording_mic_2025-03-24_12h14.22.409.wav,2.5017631999216974,3.9996881999541074,,99,Yes,0.08,1,33,2.901925600017421,2.984524199971929,2.9,Late,37.36189866665906,37.44621590001043,Normal,2024.2.4,C:\Experiments\tid_psam\psam\data\BIDS\stimuli\sub-99\sub-99_normal_probe.wav,sub-99,,34.478228699998,37.478076500003226,Active,21,34.478228699998,38.977970300009474,0.0005016999784857035,0.9997834999812767,5,0,32.6116430000402,5,34.462186100077815,38.99491900007706,C:\Experiments\tid_psam\psam\experiment_script\..\data\BIDS\sub-99\beh\sub-99_tid_psam_main_experiment_2025-03-24_12h13.39.302_mic_recorded\recording_mic_2025-03-24_12h14.22.409.wav,5,5,0,5,,,,,
38.995362500078045,40.44484830007423,3.016191400005482,3.016191400005482,,40.463319200091064,44.97757950006053,2025-03-24_12h13.39.302,tid_psam_main_experiment,2025-03-24 12h13.43.426465 +0100,39.46127590001561,-0.00041580002289265394,0.5162620999617502,60.01197838428649,2.9994277000660077,3.999500900041312,,,,,,,,C:\Experiments\tid_psam\psam\experiment_script\..\data\BIDS\sub-99\beh\sub-99_tid_psam_main_experiment_2025-03-24_12h13.39.302_mic_recorded\recording_mic_2025-03-24_12h14.28.376.wav,2.5016026999801397,3.999500900041312,,99,Yes,0.08,1,44,2.9016916999826208,2.986168000032194,2.9,Late,43.34427626670028,43.43100229999982,Pitch,2024.2.4,C:\Experiments\tid_psam\psam\data\BIDS\stimuli\sub-99\sub-99_pitch_probe.wav,sub-99,,40.463319200091064,43.47979520005174,Passive,22,40.463319200091064,44.97757950006053,0.002147100050933659,1.001774900010787,6,0,39.0134644000791,6,40.44698240002617,44.96331120003015,C:\Experiments\tid_psam\psam\experiment_script\..\data\BIDS\sub-99\beh\sub-99_tid_psam_main_experiment_2025-03-24_12h13.39.302_mic_recorded\recording_mic_2025-03-24_12h14.28.376.wav,6,6,0,6,,,,,
44.96373820002191,46.82979030010756,3.0330057999817654,3.0163663000566885,,46.84637270006351,51.393959200009704,2025-03-24_12h13.39.302,tid_psam_main_experiment,2025-03-24 12h13.43.426465 +0100,45.446350400103256,0.0015110999811440706,0.5160759000573307,60.01197838428649,2.999716400052421,4.016345500014722,,,,,,,,C:\Experiments\tid_psam\psam\experiment_script\..\data\BIDS\sub-99\beh\sub-99_tid_psam_main_experiment_2025-03-24_12h13.39.302_mic_recorded\recording_mic_2025-03-24_12h14.34.788.wav,2.5163659000536427,4.016345500014722,,99,No,0,0,99,5.8699981309473515e-05,5.8699981309473515e-05,0,None,46.846249966711426,46.84637270006351,None,2024.2.4,None,sub-99,,46.84637270006351,49.846128400065936,Passive,22,46.84637270006351,51.34606570005417,5.8699981309473515e-05,1.0164526000153273,7,0,44.97757950006053,7,46.8298388000112,51.3775839000009,C:\Experiments\tid_psam\psam\experiment_script\..\data\BIDS\sub-99\beh\sub-99_tid_psam_main_experiment_2025-03-24_12h13.39.302_mic_recorded\recording_mic_2025-03-24_12h14.34.788.wav,7,7,0,7,,,,,
51.37811270006932,53.22724860010203,3.01656679995358,3.01656679995358,,53.243814300047234,57.76253060007002,2025-03-24_12h13.39.302,tid_psam_main_experiment,2025-03-24 12h13.43.426465 +0100,51.82943770010024,-0.0003399000270292163,0.51418120006565,60.01197838428649,2.999841299955733,3.9996647000079975,,,,,,,,C:\Experiments\tid_psam\psam\experiment_script\..\data\BIDS\sub-99\beh\sub-99_tid_psam_main_experiment_2025-03-24_12h13.39.302_mic_recorded\recording_mic_2025-03-24_12h14.41.155.wav,2.4997693999903277,3.9996647000079975,,99,Yes,0.08,1,42,2.7997482999926433,2.8872872999636456,2.8,Early,56.02913386671959,56.114524400094524,Pitch,2024.2.4,C:\Experiments\tid_psam\psam\data\BIDS\stimuli\sub-99\sub-99_pitch_probe.wav,sub-99,,53.243814300047234,56.243785400060005,Passive,22,53.243814300047234,57.74570090009365,0.00031589996069669724,0.9998248000629246,8,0,51.393959200009704,8,53.22755559999496,57.74595960008446,C:\Experiments\tid_psam\psam\experiment_script\..\data\BIDS\sub-99\beh\sub-99_tid_psam_main_experiment_2025-03-24_12h13.39.302_mic_recorded\recording_mic_2025-03-24_12h14.41.155.wav,8,8,0,8,,,,,
57.746360999997705,59.02714200003538,3.032987999962643,3.0162636999739334,,59.045723400078714,63.5766411999939,2025-03-24_12h13.39.302,tid_psam_main_experiment,2025-03-24 12h13.43.426465 +0100,58.226998800062574,-0.0002191000385209918,0.501897000009194,60.01197838428649,2.999586299993098,3.9995126000139862,,,,,,,,C:\Experiments\tid_psam\psam\experiment_script\..\data\BIDS\sub-99\beh\sub-99_tid_psam_main_experiment_2025-03-24_12h13.39.302_mic_recorded\recording_mic_2025-03-24_12h14.46.970.wav,2.499608299927786,3.9995126000139862,,99,No,0,0,99,5.889998283237219e-05,5.889998283237219e-05,0,None,59.04355826677444,59.045723400078714,None,2024.2.4,None,sub-99,,59.045723400078714,62.060117800021544,Passive,22,59.045723400078714,63.56211580010131,5.889998283237219e-05,1.0164618999697268,9,0,57.76253060007002,9,59.02719240006991,63.56240290007554,C:\Experiments\tid_psam\psam\experiment_script\..\data\BIDS\sub-99\beh\sub-99_tid_psam_main_experiment_2025-03-24_12h13.39.302_mic_recorded\recording_mic_2025-03-24_12h14.46.970.wav,9,9,0,9,,,,,
63.56285149999894,64.7600911000045,3.03286619996652,3.0162550000241026,,64.77884859999176,69.32623800006695,2025-03-24_12h13.39.302,tid_psam_main_experiment,2025-03-24 12h13.43.426465 +0100,64.0266025000019,-0.0005293000722303987,0.5161033999174833,60.01197838428649,2.999650500016287,4.001675199950114,,,,,,,,C:\Experiments\tid_psam\psam\experiment_script\..\data\BIDS\sub-99\beh\sub-99_tid_psam_main_experiment_2025-03-24_12h13.39.302_mic_recorded\recording_mic_2025-03-24_12h14.52.716.wav,2.501755299977958,4.001675199950114,,99,No,0,0,99,5.909998435527086e-05,5.909998435527086e-05,0,None,64.77654456667757,64.77884859999176,None,2024.2.4,None,sub-99,,64.77884859999176,67.79294130008202,Passive,22,64.77884859999176,69.29288620001171,5.909998435527086e-05,1.016337199951522,10,0,63.5766411999939,10,64.76014040003065,69.3098786000628,C:\Experiments\tid_psam\psam\experiment_script\..\data\BIDS\sub-99\beh\sub-99_tid_psam_main_experiment_2025-03-24_12h13.39.302_mic_recorded\recording_mic_2025-03-24_12h14.52.716.wav,10,10,0,10,,,,,
69.31031030009035,70.55972200003453,3.0329955000197515,3.001774700009264,,70.57625570008531,75.1282799000619,2025-03-24_12h13.39.302,tid_psam_main_experiment,2025-03-24 12h13.43.426465 +0100,69.75953530007973,-0.0005445999559015036,0.5015287999995053,60.01197838428649,3.001774700009264,3.999619700014591,,,,,,,,C:\Experiments\tid_psam\psam\experiment_script\..\data\BIDS\sub-99\beh\sub-99_tid_psam_main_experiment_2025-03-24_12h13.39.302_mic_recorded\recording_mic_2025-03-24_12h14.58.514.wav,2.499719300074503,4.016357999993488,,99,Yes,0.08,1,34,2.899684700067155,2.9829995000036433,2.9,Late,73.45941326668641,73.54271380009595,Pitch,2024.2.4,C:\Experiments\tid_psam\psam\data\BIDS\stimuli\sub-99\sub-99_pitch_probe.wav,sub-99,,70.57625570008531,73.57604740001261,Active,21,70.57625570008531,75.07593670010101,0.0014839000068604946,0.9998222000431269,11,0,69.32623800006695,11,70.56119830009993,75.10950810008217,C:\Experiments\tid_psam\psam\experiment_script\..\data\BIDS\sub-99\beh\sub-99_tid_psam_main_experiment_2025-03-24_12h13.39.302_mic_recorded\recording_mic_2025-03-24_12h14.58.514.wav,11,11,0,11,,,,,
75.10992509999778,76.15944720001426,3.03512670006603,3.018446500063874,,76.17582660005428,80.72777870006394,2025-03-24_12h13.39.302,tid_psam_main_experiment,2025-03-24 12h13.43.426465 +0100,75.56157420005184,0.00186110008507967,0.5017121999990195,60.01197838428649,2.9996445000870153,4.016278800088912,,,,,,,,C:\Experiments\tid_psam\psam\experiment_script\..\data\BIDS\sub-99\beh\sub-99_tid_psam_main_experiment_2025-03-24_12h13.39.302_mic_recorded\recording_mic_2025-03-24_12h15.04.115.wav,2.4996273000724614,3.9996052000205964,,99,Yes,0.08,1,41,2.7996309000300243,2.8891417999984697,2.8,Early,78.95896276674854,79.04858150007203,Normal,2024.2.4,C:\Experiments\tid_psam\psam\data\BIDS\stimuli\sub-99\sub-99_normal_probe.wav,sub-99,,76.17582660005428,79.17787430004682,Passive,22,76.17582660005428,80.67776530003175,0.0015936000272631645,0.999801900004968,12,0,75.1282799000619,12,76.16103110008407,80.71130140009336,C:\Experiments\tid_psam\psam\experiment_script\..\data\BIDS\sub-99\beh\sub-99_tid_psam_main_experiment_2025-03-24_12h13.39.302_mic_recorded\recording_mic_2025-03-24_12h15.04.115.wav,12,12,0,12,,,,,
80.71172980009578,82.54245740000624,3.0329389999387786,3.016295099980198,,82.56036130001303,87.09407520003151,2025-03-24_12h13.39.302,tid_psam_main_experiment,2025-03-24 12h13.43.426465 +0100,81.15889590000734,-0.0005462999688461423,0.5183687000535429,60.01197838428649,2.999596399953589,3.9995528999716043,,,,,,,,C:\Experiments\tid_psam\psam\experiment_script\..\data\BIDS\sub-99\beh\sub-99_tid_psam_main_experiment_2025-03-24_12h13.39.302_mic_recorded\recording_mic_2025-03-24_12h15.10.480.wav,2.4996638000011444,4.018343099975027,,99,No,0,0,99,0.001017599948681891,0.001017599948681891,0,None,82.558943766697,82.56036130001303,None,2024.2.4,None,sub-99,,82.56036130001303,85.57538370008115,Active,21,82.56036130001303,87.06070950010326,0.001017599948681891,1.016461699968204,13,0,80.72777870006394,13,82.54346440010704,87.07755000004545,C:\Experiments\tid_psam\psam\experiment_script\..\data\BIDS\sub-99\beh\sub-99_tid_psam_main_experiment_2025-03-24_12h13.39.302_mic_recorded\recording_mic_2025-03-24_12h15.10.480.wav,13,13,0,13,,,,,
87.07797480002046,88.5754397000419,3.016242799931206,3.016242799931206,,88.59182329999749,93.1248730000807,2025-03-24_12h13.39.302,tid_psam_main_experiment,2025-03-24 12h13.43.426465 +0100,87.54408320004586,0.0016394000267609954,0.5161286999937147,60.01197838428649,2.9995893000159413,4.001655499916524,,,,,,,,C:\Experiments\tid_psam\psam\experiment_script\..\data\BIDS\sub-99\beh\sub-99_tid_psam_main_experiment_2025-03-24_12h13.39.302_mic_recorded\recording_mic_2025-03-24_12h15.16.509.wav,2.499556599999778,4.001655499916524,,99,Yes,0.08,1,43,2.9016139999730512,2.9849360999651253,2.9,Late,91.47499996674402,91.56035949999932,Normal,2024.2.4,C:\Experiments\tid_psam\psam\data\BIDS\stimuli\sub-99\sub-99_normal_probe.wav,sub-99,,88.59182329999749,91.59165760001633,Passive,22,88.59182329999749,93.0915612000972,0.0013985999394208193,1.0018020999850705,14,0,87.09407520003151,14,88.57682410010602,93.10865569999442,C:\Experiments\tid_psam\psam\experiment_script\..\data\BIDS\sub-99\beh\sub-99_tid_psam_main_experiment_2025-03-24_12h13.39.302_mic_recorded\recording_mic_2025-03-24_12h15.16.509.wav,14,14,0,14,,,,,
93.1090806000866,94.81064120004885,3.030609800014645,3.013918900047429,,94.82726120005827,99.36001110007055,2025-03-24_12h13.39.302,tid_psam_main_experiment,2025-03-24 12h13.43.426465 +0100,93.5748591000447,-0.0005686000222340226,0.4994127999525517,60.01197838428649,3.013918900047429,4.013955400092527,,,,,,,,C:\Experiments\tid_psam\psam\experiment_script\..\data\BIDS\sub-99\beh\sub-99_tid_psam_main_experiment_2025-03-24_12h13.39.302_mic_recorded\recording_mic_2025-03-24_12h15.22.743.wav,2.5161134001100436,4.030611100024544,,99,No,0,0,99,5.75000885874033e-05,5.75000885874033e-05,0,None,94.82706836675449,94.82726120005827,None,2024.2.4,None,sub-99,,94.82726120005827,97.84122750000097,Passive,22,94.82726120005827,99.32674560009036,5.75000885874033e-05,0.9995482000522316,15,0,93.1248730000807,15,94.81069150008261,99.34359860001132,C:\Experiments\tid_psam\psam\experiment_script\..\data\BIDS\sub-99\beh\sub-99_tid_psam_main_experiment_2025-03-24_12h13.39.302_mic_recorded\recording_mic_2025-03-24_12h15.22.743.wav,15,15,0,15,,,,,
99.34404630004428,101.10796250007115,3.0185720999725163,3.0185720999725163,,101.12437070009764,105.65749620005954,2025-03-24_12h13.39.302,tid_psam_main_experiment,2025-03-24 12h13.43.426465 +0100,99.82444820005912,0.013819900108501315,0.5138738000532612,60.01197838428649,2.999791400041431,4.0017940000398085,,,,,,,,C:\Experiments\tid_psam\psam\experiment_script\..\data\BIDS\sub-99\beh\sub-99_tid_psam_main_experiment_2025-03-24_12h13.39.302_mic_recorded\recording_mic_2025-03-24_12h15.29.040.wav,2.501784799969755,4.018397200037725,,99,Yes,0.08,1,32,2.7997322999872267,2.891021399991587,2.8,Early,103.90983066667492,103.99897710001096,Pitch,2024.2.4,C:\Experiments\tid_psam\psam\data\BIDS\stimuli\sub-99\sub-99_pitch_probe.wav,sub-99,,101.12437070009764,104.1265124999918,Active,21,101.12437070009764,105.62623380008154,0.0017937000375241041,0.9997533999849111,16,0,99.36001110007055,16,101.10974980005994,105.64324350003153,C:\Experiments\tid_psam\psam\experiment_script\..\data\BIDS\sub-99\beh\sub-99_tid_psam_main_experiment_2025-03-24_12h13.39.302_mic_recorded\recording_mic_2025-03-24_12h15.29.040.wav,16,16,0,16,,,,,
105.64366900001187,106.60766830004286,3.018403199966997,3.001900600036606,,106.62412620009854,111.15728340006899,2025-03-24_12h13.39.302,tid_psam_main_experiment,2025-03-24 12h13.43.426465 +0100,106.10749810002744,-0.00045659998431801796,,60.01197838428649,3.001900600036606,4.018410200020298,,,,,,,,C:\Experiments\tid_psam\psam\experiment_script\..\data\BIDS\sub-99\beh\sub-99_tid_psam_main_experiment_2025-03-24_12h13.39.302_mic_recorded\recording_mic_2025-03-24_12h15.34.537.wav,2.499676499981433,3.9995124000124633,,99,No,0,0,99,9.089999366551638e-05,9.089999366551638e-05,0,None,106.62407276669207,106.62412620009854,None,2024.2.4,None,sub-99,,106.62412620009854,109.62604910007212,Active,21,106.62412620009854,111.12394740001764,9.089999366551638e-05,0.9998238000553101,17,0,105.65749620005954,17,106.60774600005243,111.14082920004148,C:\Experiments\tid_psam\psam\experiment_script\..\data\BIDS\sub-99\beh\sub-99_tid_psam_main_experiment_2025-03-24_12h13.39.302_mic_recorded\recording_mic_2025-03-24_12h15.34.537.wav,17,17,0,17,,,,,
111.14124560006894,112.55734250007663,3.0185564999701455,3.001711899996735,,112.57593480008654,117.10907770006452,2025-03-24_12h13.39.302,tid_psam_main_experiment,2025-03-24 12h13.43.426465 +0100,111.60719060001429,-0.0004718999844044447,0.518195700016804,60.01197838428649,3.001711899996735,4.00184869999066,,,,,,,,C:\Experiments\tid_psam\psam\experiment_script\..\data\BIDS\sub-99\beh\sub-99_tid_psam_main_experiment_2025-03-24_12h13.39.302_mic_recorded\recording_mic_2025-03-24_12h15.40.486.wav,2.4996187000069767,4.00184869999066,,99,Yes,0.08,1,43,2.8996188000310212,2.9887453999836,2.9,Late,115.45695726672808,115.54607870010659,Normal,2024.2.4,C:\Experiments\tid_psam\psam\data\BIDS\stimuli\sub-99\sub-99_normal_probe.wav,sub-99,,112.57593480008654,115.5758785000071,Passive,22,112.57593480008654,117.09033920010552,0.0015031000366434455,1.0163256999803707,18,0,111.15728340006899,18,112.55883520003408,117.09063920006156,C:\Experiments\tid_psam\psam\experiment_script\..\data\BIDS\sub-99\beh\sub-99_tid_psam_main_experiment_2025-03-24_12h13.39.302_mic_recorded\recording_mic_2025-03-24_12h15.40.486.wav,18,18,0,18,,,,,
117.09105530008674,118.22592720005196,3.016317200032063,3.001955500105396,,118.24251810007263,122.77328310010489,2025-03-24_12h13.39.302,tid_psam_main_experiment,2025-03-24 12h13.43.426465 +0100,117.55681219999678,-0.0005216000135987997,0.49950999999418855,60.01197838428649,3.001955500105396,4.013955800095573,,,,,,,,C:\Experiments\tid_psam\psam\experiment_script\..\data\BIDS\sub-99\beh\sub-99_tid_psam_main_experiment_2025-03-24_12h13.39.302_mic_recorded\recording_mic_2025-03-24_12h15.46.150.wav,2.514051500009373,4.032985100056976,,99,Yes,0.08,1,34,2.916188000002876,3.001955500105396,2.9,Late,121.14011046669135,121.22786660003476,Pitch,2024.2.4,C:\Experiments\tid_psam\psam\data\BIDS\stimuli\sub-99\sub-99_pitch_probe.wav,sub-99,,118.24251810007263,121.24221220007166,Active,21,118.24251810007263,122.75659300002735,0.0012128000380471349,1.0141293000197038,19,0,117.10907770006452,19,118.22712820000015,122.75684740010183,C:\Experiments\tid_psam\psam\experiment_script\..\data\BIDS\sub-99\beh\sub-99_tid_psam_main_experiment_2025-03-24_12h13.39.302_mic_recorded\recording_mic_2025-03-24_12h15.46.150.wav,19,19,0,19,,,,,
122.75726990005933,124.60664310003631,3.0351255999412388,3.0018061998998746,,124.62446750001982,129.1749246000545,2025-03-24_12h13.39.302,tid_psam_main_experiment,2025-03-24 12h13.43.426465 +0100,123.24207020003814,-0.0004235999658703804,0.5139038000488654,60.01197838428649,3.0018061998998746,4.001749099930748,,,,,,,,C:\Experiments\tid_psam\psam\experiment_script\..\data\BIDS\sub-99\beh\sub-99_tid_psam_main_experiment_2025-03-24_12h13.39.302_mic_recorded\recording_mic_2025-03-24_12h15.52.550.wav,2.499712299904786,4.001749099930748,,99,No,0,0,99,0.0010093000018969178,0.0010093000018969178,0,None,124.62311906676429,124.62446750001982,None,2024.2.4,None,sub-99,,124.62446750001982,127.62511860008817,Passive,22,124.62446750001982,129.1231318000937,0.0010093000018969178,1.0186031999764964,20,0,122.77328310010489,20,124.60764290008228,129.1587198000634,C:\Experiments\tid_psam\psam\experiment_script\..\data\BIDS\sub-99\beh\sub-99_tid_psam_main_experiment_2025-03-24_12h13.39.302_mic_recorded\recording_mic_2025-03-24_12h15.52.550.wav,20,20,0,20,,,,,
129.15913859999273,130.39174340001773,3.0164640999864787,3.0164640999864787,,130.40655690000858,134.9392888000002,2025-03-24_12h13.39.302,tid_psam_main_experiment,2025-03-24 12h13.43.426465 +0100,129.60616970004048,-0.0004599000094458461,0.5017087999731302,60.01197838428649,2.999705799971707,3.9996014999924228,,,,,,,,C:\Experiments\tid_psam\psam\experiment_script\..\data\BIDS\sub-99\beh\sub-99_tid_psam_main_experiment_2025-03-24_12h13.39.302_mic_recorded\recording_mic_2025-03-24_12h15.58.315.wav,2.4999200999736786,4.0142057000193745,,99,No,0,0,99,5.519995465874672e-05,5.519995465874672e-05,0,None,130.40826976666384,130.40655690000858,None,2024.2.4,None,sub-99,,130.40655690000858,133.4081840000581,Passive,22,130.40655690000858,134.90804760006722,5.519995465874672e-05,0.9976518999319524,21,0,129.1749246000545,21,130.3917911000317,134.92507410002872,C:\Experiments\tid_psam\psam\experiment_script\..\data\BIDS\sub-99\beh\sub-99_tid_psam_main_experiment_2025-03-24_12h13.39.302_mic_recorded\recording_mic_2025-03-24_12h15.58.315.wav,21,21,0,21,,,,,
134.9255060000578,136.0892143000383,3.018620299990289,3.018620299990289,,136.1079510001,140.63886500010267,2025-03-24_12h13.39.302,tid_psam_main_experiment,2025-03-24 12h13.43.426465 +0100,135.4080363000976,0.016306799952872097,0.5328282000264153,60.01197838428649,2.9997346999589354,4.018464699969627,,,,,,,,C:\Experiments\tid_psam\psam\experiment_script\..\data\BIDS\sub-99\beh\sub-99_tid_psam_main_experiment_2025-03-24_12h13.39.302_mic_recorded\recording_mic_2025-03-24_12h16.04.011.wav,2.4997822999721393,4.018464699969627,,99,Yes,0.08,1,44,2.8997588999336585,2.991411199909635,2.9,Late,138.98892976675805,139.0806109000696,Pitch,2024.2.4,C:\Experiments\tid_psam\psam\data\BIDS\stimuli\sub-99\sub-99_pitch_probe.wav,sub-99,,136.1079510001,139.12448290002067,Passive,22,136.1079510001,140.60545070003718,0.00033279997296631336,1.0020593999652192,22,0,134.9392888000002,22,136.08953700005077,140.62252460001037,C:\Experiments\tid_psam\psam\experiment_script\..\data\BIDS\sub-99\beh\sub-99_tid_psam_main_experiment_2025-03-24_12h13.39.302_mic_recorded\recording_mic_2025-03-24_12h16.04.011.wav,22,22,0,22,,,,,
140.62295079999603,142.40569630009122,3.0161905999993905,3.0161905999993905,,142.42435580003075,146.93851380003616,2025-03-24_12h13.39.302,tid_psam_main_experiment,2025-03-24 12h13.43.426465 +0100,141.0888940000441,-0.0003081000177189708,0.49960739992093295,60.01197838428649,2.999593999935314,4.0020183000015095,,,,,,,,C:\Experiments\tid_psam\psam\experiment_script\..\data\BIDS\sub-99\beh\sub-99_tid_psam_main_experiment_2025-03-24_12h13.39.302_mic_recorded\recording_mic_2025-03-24_12h16.10.311.wav,2.5017808999400586,4.018383099930361,,99,Yes,0.08,1,41,2.799518399988301,2.8828353999415413,2.8,Early,145.20746676676598,145.28852390008979,Normal,2024.2.4,C:\Experiments\tid_psam\psam\data\BIDS\stimuli\sub-99\sub-99_normal_probe.wav,sub-99,,142.42435580003075,145.43858210009057,Passive,22,142.42435580003075,146.92398050008342,0.0005155999679118395,1.0019805999472737,23,0,140.63886500010267,23,142.4061952000484,146.92418490001,C:\Experiments\tid_psam\psam\experiment_script\..\data\BIDS\sub-99\beh\sub-99_tid_psam_main_experiment_2025-03-24_12h13.39.302_mic_recorded\recording_mic_2025-03-24_12h16.10.311.wav,23,23,0,23,,,,,
146.92458990006708,148.0721094000619,3.016266299993731,3.016266299993731,,148.0889442000771,152.60494099999778,2025-03-24_12h13.39.302,tid_psam_main_experiment,2025-03-24 12h13.43.426465 +0100,147.40515410003718,-0.0005311999702826142,0.49944309995044023,60.01197838428649,2.9995913000311702,4.00166700000409,,,,,,,,C:\Experiments\tid_psam\psam\experiment_script\..\data\BIDS\sub-99\beh\sub-99_tid_psam_main_experiment_2025-03-24_12h13.39.302_mic_recorded\recording_mic_2025-03-24_12h16.15.976.wav,2.499611599952914,4.00166700000409,,99,No,0,0,99,0.0016198999946936965,0.0016198999946936965,0,None,148.08852746669825,148.0889442000771,None,2024.2.4,None,sub-99,,148.0889442000771,151.08835470001213,Active,21,148.0889442000771,152.59047799999826,0.0016198999946936965,1.0019270000047982,24,0,146.93851380003616,24,148.07372000010218,152.59070110006724,C:\Experiments\tid_psam\psam\experiment_script\..\data\BIDS\sub-99\beh\sub-99_tid_psam_main_experiment_2025-03-24_12h13.39.302_mic_recorded\recording_mic_2025-03-24_12h16.15.976.wav,24,24,0,24,,,,,
152.59112980007194,154.00507040007506,3.032937700045295,3.001723400084302,,154.02151740004774,158.57123300002422,2025-03-24_12h13.39.302,tid_psam_main_experiment,2025-03-24 12h13.43.426465 +0100,153.0736457000021,0.0015507000498473644,0.49936280003748834,60.01197838428649,3.001723400084302,4.001695899991319,,,,,,,,C:\Experiments\tid_psam\psam\experiment_script\..\data\BIDS\sub-99\beh\sub-99_tid_psam_main_experiment_2025-03-24_12h13.39.302_mic_recorded\recording_mic_2025-03-24_12h16.21.940.wav,2.5016932000871748,4.001695899991319,,99,No,0,0,99,5.540007259696722e-05,5.540007259696722e-05,0,None,154.02152866666827,154.02151740004774,None,2024.2.4,None,sub-99,,154.02151740004774,157.02128500002436,Active,21,154.02151740004774,158.52335410006344,5.540007259696722e-05,0.9996651000110433,25,0,152.60494099999778,25,154.00511750008445,158.55480400007218,C:\Experiments\tid_psam\psam\experiment_script\..\data\BIDS\sub-99\beh\sub-99_tid_psam_main_experiment_2025-03-24_12h13.39.302_mic_recorded\recording_mic_2025-03-24_12h16.21.940.wav,25,25,0,25,,,,,
158.5552593000466,159.6712660000194,3.033115900005214,3.0163869000971317,,159.68778959999327,164.23746319999918,2025-03-24_12h13.39.302,tid_psam_main_experiment,2025-03-24 12h13.43.426465 +0100,159.00459530006628,-0.00045419996604323387,0.49938090005889535,60.01197838428649,2.9997732000192627,4.001825800049119,,,,,,,,C:\Experiments\tid_psam\psam\experiment_script\..\data\BIDS\sub-99\beh\sub-99_tid_psam_main_experiment_2025-03-24_12h13.39.302_mic_recorded\recording_mic_2025-03-24_12h16.27.604.wav,2.5018436000682414,4.01837540010456,,99,Yes,0.08,1,33,2.901854300056584,2.9908073000842705,2.9,Late,162.5709365667465,162.66206520004198,Normal,2024.2.4,C:\Experiments\tid_psam\psam\data\BIDS\stimuli\sub-99\sub-99_normal_probe.wav,sub-99,,159.68778959999327,162.68762970005628,Active,21,159.68778959999327,164.1876250000205,0.00032430002465844154,0.9998147001024336,26,0,158.57123300002422,26,159.67158570000902,164.22109440003987,C:\Experiments\tid_psam\psam\experiment_script\..\data\BIDS\sub-99\beh\sub-99_tid_psam_main_experiment_2025-03-24_12h13.39.302_mic_recorded\recording_mic_2025-03-24_12h16.27.604.wav,26,26,0,26,,,,,
164.22153400001116,166.05434450006578,3.0328955999575555,3.001700000022538,,166.0707650000695,170.60592910007108,2025-03-24_12h13.39.302,tid_psam_main_experiment,2025-03-24 12h13.43.426465 +0100,164.67300290009007,0.0017405000980943441,0.5016733000520617,60.01197838428649,3.001700000022538,3.99946760002058,,,,,,,,C:\Experiments\tid_psam\psam\experiment_script\..\data\BIDS\sub-99\beh\sub-99_tid_psam_main_experiment_2025-03-24_12h13.39.302_mic_recorded\recording_mic_2025-03-24_12h16.33.971.wav,2.499591500032693,3.99946760002058,,99,Yes,0.08,1,42,2.799575899960473,2.883952399948612,2.8,Early,168.8539422667275,168.93828720005695,Pitch,2024.2.4,C:\Experiments\tid_psam\psam\data\BIDS\stimuli\sub-99\sub-99_pitch_probe.wav,sub-99,,166.0707650000695,169.0705130000133,Passive,22,166.0707650000695,170.57057450001594,0.0013493000296875834,0.9996976000256836,27,0,164.23746319999918,27,166.05568860005587,170.58952720009256,C:\Experiments\tid_psam\psam\experiment_script\..\data\BIDS\sub-99\beh\sub-99_tid_psam_main_experiment_2025-03-24_12h13.39.302_mic_recorded\recording_mic_2025-03-24_12h16.33.971.wav,27,27,0,27,,,,,
170.58994820003863,171.67060090007726,3.0294138999888673,3.0018683000234887,,171.68717100005597,176.22236760007218,2025-03-24_12h13.39.302,tid_psam_main_experiment,2025-03-24 12h13.43.426465 +0100,171.05371560005005,-0.000624599982984364,0.5015308000147343,60.01197838428649,3.0018683000234887,4.018406299990602,,,,,,,,C:\Experiments\tid_psam\psam\experiment_script\..\data\BIDS\sub-99\beh\sub-99_tid_psam_main_experiment_2025-03-24_12h13.39.302_mic_recorded\recording_mic_2025-03-24_12h16.39.583.wav,2.4997366000898182,3.9996106000617146,,99,Yes,0.08,1,31,2.79960780008696,2.8903391000349075,2.8,Early,174.4702865667098,174.56085750006605,Normal,2024.2.4,C:\Experiments\tid_psam\psam\data\BIDS\stimuli\sub-99\sub-99_normal_probe.wav,sub-99,,171.68717100005597,174.6999895001063,Active,21,171.68717100005597,176.18679120007437,0.0015156000154092908,1.0019489000551403,28,0,170.60592910007108,28,171.67210409999825,176.20372720004525,C:\Experiments\tid_psam\psam\experiment_script\..\data\BIDS\sub-99\beh\sub-99_tid_psam_main_experiment_2025-03-24_12h13.39.302_mic_recorded\recording_mic_2025-03-24_12h16.39.583.wav,28,28,0,28,,,,,
176.2041462000925,177.33694770000875,3.03507039998658,3.016334099927917,,177.35552270000335,181.8865408001002,2025-03-24_12h13.39.302,tid_psam_main_experiment,2025-03-24 12h13.43.426465 +0100,176.67012910009362,-0.00045950000640004873,0.5161879999795929,60.01197838428649,2.999651199905202,3.9996052999049425,,,,,,,,C:\Experiments\tid_psam\psam\experiment_script\..\data\BIDS\sub-99\beh\sub-99_tid_psam_main_experiment_2025-03-24_12h13.39.302_mic_recorded\recording_mic_2025-03-24_12h16.45.251.wav,2.499610499944538,3.9996052999049425,,99,No,0,0,99,0.0011150999926030636,0.0011150999926030636,0,None,177.35343156668048,177.35552270000335,None,2024.2.4,None,sub-99,,177.35552270000335,180.3720081000356,Passive,22,177.35552270000335,181.85548010002822,0.0011150999926030636,1.0163768999045715,29,0,176.22236760007218,29,177.33805410005152,181.87227320007514,C:\Experiments\tid_psam\psam\experiment_script\..\data\BIDS\sub-99\beh\sub-99_tid_psam_main_experiment_2025-03-24_12h13.39.302_mic_recorded\recording_mic_2025-03-24_12h16.45.251.wav,29,29,0,29,,,,,
181.87269099999685,183.42202860000543,3.0330720000201836,3.0142637999961153,,183.43870960001368,187.98620440007653,2025-03-24_12h13.39.302,tid_psam_main_experiment,2025-03-24 12h13.43.426465 +0100,182.33644340001047,-0.0004934000317007303,0.5161630999064073,60.01197838428649,3.0142637999961153,4.033047399949282,,,,,,,,C:\Experiments\tid_psam\psam\experiment_script\..\data\BIDS\sub-99\beh\sub-99_tid_psam_main_experiment_2025-03-24_12h13.39.302_mic_recorded\recording_mic_2025-03-24_12h16.51.347.wav,2.5142372000264004,4.033047399949282,,99,No,0,0,99,0.0010487999534234405,0.0010487999534234405,0,None,183.43852746667497,183.43870960001368,None,2024.2.4,None,sub-99,,183.43870960001368,186.4550753000658,Active,21,183.43870960001368,187.95494550000876,0.0010487999534234405,1.0142987000290304,30,0,181.8865408001002,30,183.42306350008585,187.9697440000018,C:\Experiments\tid_psam\psam\experiment_script\..\data\BIDS\sub-99\beh\sub-99_tid_psam_main_experiment_2025-03-24_12h13.39.302_mic_recorded\recording_mic_2025-03-24_12h16.51.347.wav,30,30,0,30,,,,,
187.97019790008198,189.3051017000107,3.030872300034389,3.0142198000103235,,189.31940290005878,193.85254250001162,2025-03-24_12h13.39.302,tid_psam_main_experiment,2025-03-24 12h13.43.426465 +0100,188.43614600005094,0.014127700007520616,0.5163313000230119,60.01197838428649,3.0142198000103235,4.014133700053208,,,,,,,,C:\Experiments\tid_psam\psam\experiment_script\..\data\BIDS\sub-99\beh\sub-99_tid_psam_main_experiment_2025-03-24_12h13.39.302_mic_recorded\recording_mic_2025-03-24_12h16.57.214.wav,2.516312099993229,4.030838800012134,,99,No,0,0,99,0.0011389999417588115,0.0011389999417588115,0,None,189.32162636676028,189.31940290005878,None,2024.2.4,None,sub-99,,189.31940290005878,192.3192973000696,Passive,22,189.31940290005878,193.8191819000058,0.0011389999417588115,0.9978536999551579,31,0,187.98620440007653,31,189.3062262000749,193.8382319000084,C:\Experiments\tid_psam\psam\experiment_script\..\data\BIDS\sub-99\beh\sub-99_tid_psam_main_experiment_2025-03-24_12h13.39.302_mic_recorded\recording_mic_2025-03-24_12h16.57.214.wav,31,31,0,31,,,,,
193.83866250002757,195.3692938000895,3.0183787000132725,3.0183787000132725,,195.388157300069,199.92096950009,2025-03-24_12h13.39.302,tid_psam_main_experiment,2025-03-24 12h13.43.426465 +0100,194.31913750001695,0.014051100006327033,0.5140446999575943,60.01197838428649,2.9995841999771073,4.001751100062393,,,,,,,,C:\Experiments\tid_psam\psam\experiment_script\..\data\BIDS\sub-99\beh\sub-99_tid_psam_main_experiment_2025-03-24_12h13.39.302_mic_recorded\recording_mic_2025-03-24_12h17.03.279.wav,2.5017273999983445,4.001751100062393,,99,No,0,0,99,0.0010860000038519502,0.0010860000038519502,0,None,195.38572296669398,195.388157300069,None,2024.2.4,None,sub-99,,195.388157300069,198.4022012000205,Active,21,195.388157300069,199.88552440004423,0.0010860000038519502,1.0018075000261888,32,0,193.85254250001162,32,195.37037160003092,199.90481650002766,C:\Experiments\tid_psam\psam\experiment_script\..\data\BIDS\sub-99\beh\sub-99_tid_psam_main_experiment_2025-03-24_12h13.39.302_mic_recorded\recording_mic_2025-03-24_12h17.03.279.wav,32,32,0,32,,,,,
199.90522810001858,200.98581290000584,3.0349316999781877,3.0016309999627993,,201.00220089999493,205.55396460008342,2025-03-24_12h13.39.302,tid_psam_main_experiment,2025-03-24 12h13.43.426465 +0100,200.36880060005933,-0.00047940004151314497,0.5163269999902695,60.01197838428649,3.0016309999627993,4.001528199994937,,,,,,,,C:\Experiments\tid_psam\psam\experiment_script\..\data\BIDS\sub-99\beh\sub-99_tid_psam_main_experiment_2025-03-24_12h13.39.302_mic_recorded\recording_mic_2025-03-24_12h17.08.908.wav,2.5016684000147507,4.001528199994937,,99,No,0,0,99,0.0009752999758347869,0.0009752999758347869,0,None,201.00221736677148,201.00220089999493,None,2024.2.4,None,sub-99,,201.00220089999493,204.00185450003482,Passive,22,201.00220089999493,205.50176260003354,0.0009752999758347869,0.9996609999798238,33,0,199.92096950009,33,200.98677310009953,205.53538710006978,C:\Experiments\tid_psam\psam\experiment_script\..\data\BIDS\sub-99\beh\sub-99_tid_psam_main_experiment_2025-03-24_12h13.39.302_mic_recorded\recording_mic_2025-03-24_12h17.08.908.wav,33,33,0,33,,,,,
205.53583370009437,207.22105740010738,3.0305059000384063,3.0159806000301614,,207.2388947000727,211.78477400005795,2025-03-24_12h13.39.302,tid_psam_main_experiment,2025-03-24 12h13.43.426465 +0100,205.98522450006567,-0.0005761999636888504,0.49934450001455843,60.01197838428649,3.0159806000301614,4.0159432999789715,,,,,,,,C:\Experiments\tid_psam\psam\experiment_script\..\data\BIDS\sub-99\beh\sub-99_tid_psam_main_experiment_2025-03-24_12h13.39.302_mic_recorded\recording_mic_2025-03-24_12h17.15.140.wav,2.4993818999500945,4.0159432999789715,,99,No,0,0,99,6.089999806135893e-05,6.089999806135893e-05,0,None,207.23745366669417,207.2388947000727,None,2024.2.4,None,sub-99,,207.2388947000727,210.25152859999798,Passive,22,207.2388947000727,211.7514698000159,6.089999806135893e-05,1.0160922999493778,34,0,205.55396460008342,34,207.22111130005214,211.76842350000516,C:\Experiments\tid_psam\psam\experiment_script\..\data\BIDS\sub-99\beh\sub-99_tid_psam_main_experiment_2025-03-24_12h13.39.302_mic_recorded\recording_mic_2025-03-24_12h17.15.140.wav,34,34,0,34,,,,,
211.76888670003973,213.68691060005222,3.016585999983363,3.005498299957253,,213.70352300000377,218.2365745001007,2025-03-24_12h13.39.302,tid_psam_main_experiment,2025-03-24 12h13.43.426465 +0100,212.23691090010107,-0.0007604999700561166,0.49923940002918243,60.01197838428649,3.005498299957253,4.014266999904066,,,,,,,,C:\Experiments\tid_psam\psam\experiment_script\..\data\BIDS\sub-99\beh\sub-99_tid_psam_main_experiment_2025-03-24_12h13.39.302_mic_recorded\recording_mic_2025-03-24_12h17.21.589.wav,2.514433999895118,4.0330876999069005,,99,Yes,0.08,1,43,2.899799499893561,2.9810085999779403,2.9,Late,216.60336256673716,216.69238730007783,Normal,2024.2.4,C:\Experiments\tid_psam\psam\data\BIDS\stimuli\sub-99\sub-99_normal_probe.wav,sub-99,,213.70352300000377,216.70347050006967,Passive,22,213.70352300000377,218.21991380001418,0.00030289997812360525,1.0144101999467239,35,0,211.78477400005795,35,213.68720280006528,218.22013400006108,C:\Experiments\tid_psam\psam\experiment_script\..\data\BIDS\sub-99\beh\sub-99_tid_psam_main_experiment_2025-03-24_12h13.39.302_mic_recorded\recording_mic_2025-03-24_12h17.21.589.wav,35,35,0,35,,,,,
218.22077710006852,220.00324150000233,3.0145173999480903,3.0145173999480903,,220.01983540004585,224.5363782000495,2025-03-24_12h13.39.302,tid_psam_main_experiment,2025-03-24 12h13.43.426465 +0100,218.70104130008258,0.014145199907943606,0.5141036999411881,60.01197838428649,3.0145173999480903,4.016525399987586,,,,,,,,C:\Experiments\tid_psam\psam\experiment_script\..\data\BIDS\sub-99\beh\sub-99_tid_psam_main_experiment_2025-03-24_12h13.39.302_mic_recorded\recording_mic_2025-03-24_12h17.27.889.wav,2.4998519000364468,3.999690999975428,,99,Yes,0.08,1,41,2.814398600021377,2.900038299965672,2.8,Early,222.8175487666779,222.90326570009347,Normal,2024.2.4,C:\Experiments\tid_psam\psam\data\BIDS\stimuli\sub-99\sub-99_normal_probe.wav,sub-99,,220.01983540004585,223.03636880009435,Passive,22,220.01983540004585,224.5197082000086,0.00030700000934302807,1.0143649999517947,36,0,218.2365745001007,36,220.0035363000352,224.5200102000963,C:\Experiments\tid_psam\psam\experiment_script\..\data\BIDS\sub-99\beh\sub-99_tid_psam_main_experiment_2025-03-24_12h13.39.302_mic_recorded\recording_mic_2025-03-24_12h17.27.889.wav,36,36,0,36,,,,,
224.5204358000774,226.36956660007127,3.03096840006765,3.014413500088267,,226.38409410009626,230.93363510002382,2025-03-24_12h13.39.302,tid_psam_main_experiment,2025-03-24 12h13.43.426465 +0100,225.00296130008064,-0.0002669999375939369,0.4998357000295073,60.01197838428649,3.014413500088267,4.0141571999993175,,,,,,,,C:\Experiments\tid_psam\psam\experiment_script\..\data\BIDS\sub-99\beh\sub-99_tid_psam_main_experiment_2025-03-24_12h13.39.302_mic_recorded\recording_mic_2025-03-24_12h17.34.284.wav,2.4999517000978813,4.0141571999993175,,99,No,0,0,99,5.5600074119865894e-05,5.5600074119865894e-05,0,None,226.38610666670527,226.38409410009626,None,2024.2.4,None,sub-99,,226.38409410009626,229.3839618000202,Passive,22,226.38409410009626,230.8836301000556,5.5600074119865894e-05,0.9977966999867931,37,0,224.5363782000495,37,226.36961330007762,230.91730630001985,C:\Experiments\tid_psam\psam\experiment_script\..\data\BIDS\sub-99\beh\sub-99_tid_psam_main_experiment_2025-03-24_12h13.39.302_mic_recorded\recording_mic_2025-03-24_12h17.34.284.wav,37,37,0,37,,,,,
230.91771870001685,232.16932089999318,3.016509299981408,3.016509299981408,,232.18578630010597,236.7190225000959,2025-03-24_12h13.39.302,tid_psam_main_experiment,2025-03-24 12h13.43.426465 +0100,231.38365220010746,-0.00025589996948838234,0.49758050008676946,60.01197838428649,3.016509299981408,4.0140673000132665,,,,,,,,C:\Experiments\tid_psam\psam\experiment_script\..\data\BIDS\sub-99\beh\sub-99_tid_psam_main_experiment_2025-03-24_12h13.39.302_mic_recorded\recording_mic_2025-03-24_12h17.40.068.wav,2.5142084000399336,4.0140673000132665,,99,No,0,0,99,0.0009870000649243593,0.0009870000649243593,0,None,232.18585716671467,232.18578630010597,None,2024.2.4,None,sub-99,,232.18578630010597,235.20020980003756,Active,21,232.18578630010597,236.68350360007025,0.0009870000649243593,1.0143003000412136,38,0,230.93363510002382,38,232.17029260005802,236.7027620000299,C:\Experiments\tid_psam\psam\experiment_script\..\data\BIDS\sub-99\beh\sub-99_tid_psam_main_experiment_2025-03-24_12h13.39.302_mic_recorded\recording_mic_2025-03-24_12h17.40.068.wav,38,38,0,38,,,,,
236.70340890006628,237.90033820003737,3.0184386000037193,3.0016435000579804,,237.91812670009676,242.4498043000931,2025-03-24_12h13.39.302,tid_psam_main_experiment,2025-03-24 12h13.43.426465 +0100,237.16897370002698,-0.00032240001019090414,0.5162350999889895,60.01197838428649,3.0016435000579804,4.018339600064792,,,,,,,,C:\Experiments\tid_psam\psam\experiment_script\..\data\BIDS\sub-99\beh\sub-99_tid_psam_main_experiment_2025-03-24_12h13.39.302_mic_recorded\recording_mic_2025-03-24_12h17.45.797.wav,2.4996215000282973,4.018339600064792,,99,No,0,0,99,9.50000248849392e-05,9.50000248849392e-05,0,None,237.91667366674326,237.91812670009676,None,2024.2.4,None,sub-99,,237.91812670009676,240.91874690004624,Active,21,237.91812670009676,242.4164889000822,9.50000248849392e-05,1.0019203000701964,39,0,236.7190225000959,39,237.90042000007816,242.4334477999946,C:\Experiments\tid_psam\psam\experiment_script\..\data\BIDS\sub-99\beh\sub-99_tid_psam_main_experiment_2025-03-24_12h13.39.302_mic_recorded\recording_mic_2025-03-24_12h17.45.797.wav,39,39,0,39,,,,,
242.43386760004796,244.33312790002674,3.018374599982053,3.018374599982053,,244.34968720003963,248.88484630000312,2025-03-24_12h13.39.302,tid_psam_main_experiment,2025-03-24 12h13.43.426465 +0100,242.9018416000763,0.0015082999598234892,0.5014463000698015,60.01197838428649,2.999719599960372,4.01632840000093,,,,,,,,C:\Experiments\tid_psam\psam\experiment_script\..\data\BIDS\sub-99\beh\sub-99_tid_psam_main_experiment_2025-03-24_12h13.39.302_mic_recorded\recording_mic_2025-03-24_12h17.52.231.wav,2.4996568999486044,4.01632840000093,,99,Yes,0.08,1,42,2.799632699927315,2.8829856999218464,2.8,Early,247.13289906672824,247.21609980007634,Pitch,2024.2.4,C:\Experiments\tid_psam\psam\data\BIDS\stimuli\sub-99\sub-99_pitch_probe.wav,sub-99,,244.34968720003963,247.3514756000368,Passive,22,244.34968720003963,248.84945120010525,0.0013240999542176723,1.0019082999788225,40,0,242.4498043000931,40,244.3344405000098,248.86851699999534,C:\Experiments\tid_psam\psam\experiment_script\..\data\BIDS\sub-99\beh\sub-99_tid_psam_main_experiment_2025-03-24_12h13.39.302_mic_recorded\recording_mic_2025-03-24_12h17.52.231.wav,40,40,0,40,,,,,
248.8689334000228,250.46607980004046,3.018543300102465,3.018543300102465,,250.48254600004293,255.01792410004418,2025-03-24_12h13.39.302,tid_psam_main_experiment,2025-03-24 12h13.43.426465 +0100,249.33481340005528,0.0016999999061226845,0.5018015999812633,60.01197838428649,2.999722200096585,4.018482900108211,,,,,,,,C:\Experiments\tid_psam\psam\experiment_script\..\data\BIDS\sub-99\beh\sub-99_tid_psam_main_experiment_2025-03-24_12h13.39.302_mic_recorded\recording_mic_2025-03-24_12h17.58.362.wav,2.501863000099547,4.018482900108211,,99,Yes,0.08,1,33,2.8997231000103056,2.9845969000598416,2.9,Late,253.36575876671512,253.45066230010707,Normal,2024.2.4,C:\Experiments\tid_psam\psam\data\BIDS\stimuli\sub-99\sub-99_normal_probe.wav,sub-99,,250.48254600004293,253.48459720006213,Active,21,250.48254600004293,254.9824040000094,0.0014497000956907868,1.0020527000306174,41,0,248.88484630000312,41,250.4675208000699,255.00151400000323,C:\Experiments\tid_psam\psam\experiment_script\..\data\BIDS\sub-99\beh\sub-99_tid_psam_main_experiment_2025-03-24_12h13.39.302_mic_recorded\recording_mic_2025-03-24_12h17.58.362.wav,41,41,0,41,,,,,
255.00192100007553,256.30112350010313,3.0144391000503674,3.0144391000503674,,256.31768470001407,260.834302400006,2025-03-24_12h13.39.302,tid_psam_main_experiment,2025-03-24 12h13.43.426465 +0100,255.46562170004472,-0.000448599923402071,0.4995017000474036,60.01197838428649,2.9997617000481114,3.9997075999854133,,,,,,,,C:\Experiments\tid_psam\psam\experiment_script\..\data\BIDS\sub-99\beh\sub-99_tid_psam_main_experiment_2025-03-24_12h13.39.302_mic_recorded\recording_mic_2025-03-24_12h18.04.178.wav,2.516541499993764,4.030940999975428,,99,No,0,0,99,5.889998283237219e-05,5.889998283237219e-05,0,None,256.3176641667417,256.31768470001407,None,2024.2.4,None,sub-99,,256.31768470001407,259.3155330000445,Active,21,256.31768470001407,260.81761600007303,5.889998283237219e-05,1.0001381000038236,42,0,255.01792410004418,42,256.3011727000121,260.81797249999363,C:\Experiments\tid_psam\psam\experiment_script\..\data\BIDS\sub-99\beh\sub-99_tid_psam_main_experiment_2025-03-24_12h13.39.302_mic_recorded\recording_mic_2025-03-24_12h18.04.178.wav,42,42,0,42,,,,,
260.81840970006306,262.2011366999941,3.016158999991603,3.016158999991603,,262.21769280009903,266.7505915000802,2025-03-24_12h13.39.302,tid_psam_main_experiment,2025-03-24 12h13.43.426465 +0100,261.2985947000561,0.016342999995686114,0.5141361000714824,60.01197838428649,3.016158999991603,4.013937599956989,,,,,,,,C:\Experiments\tid_psam\psam\experiment_script\..\data\BIDS\sub-99\beh\sub-99_tid_psam_main_experiment_2025-03-24_12h13.39.302_mic_recorded\recording_mic_2025-03-24_12h18.10.090.wav,2.516222000005655,4.013937599956989,,99,Yes,0.08,1,31,2.8273358000442386,2.8974155000178143,2.8,Early,265.00052866671854,265.08223679999355,Normal,2024.2.4,C:\Experiments\tid_psam\psam\data\BIDS\stimuli\sub-99\sub-99_normal_probe.wav,sub-99,,262.21769280009903,265.2319039000431,Active,21,262.21769280009903,266.7317622000119,0.0003065000055357814,1.0141224999679253,43,0,260.834302400006,43,262.20143540005665,266.73204380006064,C:\Experiments\tid_psam\psam\experiment_script\..\data\BIDS\sub-99\beh\sub-99_tid_psam_main_experiment_2025-03-24_12h13.39.302_mic_recorded\recording_mic_2025-03-24_12h18.10.090.wav,43,43,0,43,,,,,
266.7324661000166,268.08183870010544,3.0329237999394536,3.016296199988574,,268.09825280006044,272.6313160000136,2025-03-24_12h13.39.302,tid_psam_main_experiment,2025-03-24 12h13.43.426465 +0100,267.19842230004724,0.013926699990406632,0.5161086999578401,60.01197838428649,2.9996541999280453,3.9995081999804825,,,,,,,,C:\Experiments\tid_psam\psam\experiment_script\..\data\BIDS\sub-99\beh\sub-99_tid_psam_main_experiment_2025-03-24_12h13.39.302_mic_recorded\recording_mic_2025-03-24_12h18.15.973.wav,2.499668199918233,3.9995081999804825,,99,Yes,0.08,1,32,2.7996400999836624,2.882995199994184,2.8,Early,270.88138746674326,270.96481180004776,Pitch,2024.2.4,C:\Experiments\tid_psam\psam\data\BIDS\stimuli\sub-99\sub-99_pitch_probe.wav,sub-99,,268.09825280006044,271.0981157000642,Active,21,268.09825280006044,272.59794590005185,0.0004952999297529459,0.9997176999459043,44,0,266.7505915000802,44,268.08231860003434,272.6171911000274,C:\Experiments\tid_psam\psam\experiment_script\..\data\BIDS\sub-99\beh\sub-99_tid_psam_main_experiment_2025-03-24_12h13.39.302_mic_recorded\recording_mic_2025-03-24_12h18.15.973.wav,44,44,0,44,,,,,
272.6176097000716,274.0501888000872,3.0309599000029266,3.0142507000127807,,274.06698960007634,278.61441720009316,2025-03-24_12h13.39.302,tid_psam_main_experiment,2025-03-24 12h13.43.426465 +0100,273.0834696000675,0.001636600005440414,0.5015978999435902,60.01197838428649,3.0142507000127807,4.016266299993731,,,,,,,,C:\Experiments\tid_psam\psam\experiment_script\..\data\BIDS\sub-99\beh\sub-99_tid_psam_main_experiment_2025-03-24_12h13.39.302_mic_recorded\recording_mic_2025-03-24_12h18.21.953.wav,2.5143499000696465,4.016266299993731,,99,No,0,0,99,0.0009434000821784139,0.0009434000821784139,0,None,274.06672836671737,274.06698960007634,None,2024.2.4,None,sub-99,,274.06698960007634,277.0810946000274,Passive,22,274.06698960007634,278.5810080000665,0.0009434000821784139,0.9999138000421226,45,0,272.6313160000136,45,274.05111800006125,278.59805480006617,C:\Experiments\tid_psam\psam\experiment_script\..\data\BIDS\sub-99\beh\sub-99_tid_psam_main_experiment_2025-03-24_12h13.39.302_mic_recorded\recording_mic_2025-03-24_12h18.21.953.wav,45,45,0,45,,,,,
278.5985108000459,280.31653630000073,3.030972099979408,3.0143087999895215,,280.33308280003257,284.8640890000388,2025-03-24_12h13.39.302,tid_psam_main_experiment,2025-03-24 12h13.43.426465 +0100,279.0664900999982,-0.00044700002763420343,0.5161832000594586,60.01197838428649,3.0143087999895215,4.014215599978343,,,,,,,,C:\Experiments\tid_psam\psam\experiment_script\..\data\BIDS\sub-99\beh\sub-99_tid_psam_main_experiment_2025-03-24_12h13.39.302_mic_recorded\recording_mic_2025-03-24_12h18.28.203.wav,2.5164296999573708,4.014215599978343,,99,Yes,0.08,1,34,2.9163605000358075,2.9976767000043765,2.9,Late,283.21629756671996,283.30447110009845,Pitch,2024.2.4,C:\Experiments\tid_psam\psam\data\BIDS\stimuli\sub-99\sub-99_pitch_probe.wav,sub-99,,280.33308280003257,283.34748330002185,Active,21,280.33308280003257,284.84953220002353,0.00138369994238019,1.0143688999814913,46,0,278.61441720009316,46,280.31790570006706,284.8498241000343,C:\Experiments\tid_psam\psam\experiment_script\..\data\BIDS\sub-99\beh\sub-99_tid_psam_main_experiment_2025-03-24_12h13.39.302_mic_recorded\recording_mic_2025-03-24_12h18.28.203.wav,46,46,0,46,,,,,
284.8502448000945,285.85004020005,3.0304462999338284,3.0138130999403074,,285.8640254000202,290.3970940000145,2025-03-24_12h13.39.302,tid_psam_main_experiment,2025-03-24 12h13.43.426465 +0100,285.3308078000555,0.01428260002285242,0.5331270999740809,60.01197838428649,3.0138130999403074,4.013748199911788,,,,,,,,C:\Experiments\tid_psam\psam\experiment_script\..\data\BIDS\sub-99\beh\sub-99_tid_psam_main_experiment_2025-03-24_12h13.39.302_mic_recorded\recording_mic_2025-03-24_12h18.33.733.wav,2.513855699915439,4.013748199911788,,99,Yes,0.08,1,44,2.913899999926798,2.9970828999066725,2.9,Late,288.74931986671095,288.84710920008365,Pitch,2024.2.4,C:\Experiments\tid_psam\psam\data\BIDS\stimuli\sub-99\sub-99_pitch_probe.wav,sub-99,,285.8640254000202,288.86383020004723,Passive,22,285.8640254000202,290.36587820004206,0.001385499956086278,0.997288899961859,47,0,284.8640890000388,47,285.851412900025,290.3807652000105,C:\Experiments\tid_psam\psam\experiment_script\..\data\BIDS\sub-99\beh\sub-99_tid_psam_main_experiment_2025-03-24_12h13.39.302_mic_recorded\recording_mic_2025-03-24_12h18.33.733.wav,47,47,0,47,,,,,
290.3811787000159,291.5971960000461,3.0161737999878824,3.0161737999878824,,291.6159026999958,296.13239740009885,2025-03-24_12h13.39.302,tid_psam_main_experiment,2025-03-24 12h13.43.426465 +0100,290.8637198000215,0.013709999970160425,0.5302915999200195,60.01197838428649,2.9994970998959616,3.999633599887602,,,,,,,,C:\Experiments\tid_psam\psam\experiment_script\..\data\BIDS\sub-99\beh\sub-99_tid_psam_main_experiment_2025-03-24_12h13.39.302_mic_recorded\recording_mic_2025-03-24_12h18.39.464.wav,2.49960199999623,3.999633599887602,,99,Yes,0.08,1,42,2.801673399982974,2.884944499935955,2.8,Early,294.39682106668283,294.4821266999934,Pitch,2024.2.4,C:\Experiments\tid_psam\psam\data\BIDS\stimuli\sub-99\sub-99_pitch_probe.wav,sub-99,,291.6159026999958,294.6322397000622,Passive,22,291.6159026999958,296.1135855000466,0.00031669996678829193,1.0018071999074891,48,0,290.3970940000145,48,291.5975033000577,296.1138373001013,C:\Experiments\tid_psam\psam\experiment_script\..\data\BIDS\sub-99\beh\sub-99_tid_psam_main_experiment_2025-03-24_12h13.39.302_mic_recorded\recording_mic_2025-03-24_12h18.39.464.wav,48,48,0,48,,,,,
296.114255100023,297.51360430009663,3.016217799973674,3.016217799973674,,297.5321260000346,302.04850020003505,2025-03-24_12h13.39.302,tid_psam_main_experiment,2025-03-24 12h13.43.426465 +0100,296.59885090007447,0.0016698999097570777,0.5182866998948157,60.01197838428649,2.999562200042419,4.001663599978201,,,,,,,,C:\Experiments\tid_psam\psam\experiment_script\..\data\BIDS\sub-99\beh\sub-99_tid_psam_main_experiment_2025-03-24_12h13.39.302_mic_recorded\recording_mic_2025-03-24_12h18.45.381.wav,2.4994955000001937,4.0181705000577495,,99,Yes,0.08,1,43,2.899569100001827,2.9829532000003383,2.9,Late,300.4152096667715,300.49654230009764,Normal,2024.2.4,C:\Experiments\tid_psam\psam\data\BIDS\stimuli\sub-99\sub-99_normal_probe.wav,sub-99,,297.5321260000346,300.54855760000646,Passive,22,297.5321260000346,302.0319258000236,0.00031589996069669724,1.0018333999905735,49,0,296.13239740009885,49,297.5139112001052,302.032239900087,C:\Experiments\tid_psam\psam\experiment_script\..\data\BIDS\sub-99\beh\sub-99_tid_psam_main_experiment_2025-03-24_12h13.39.302_mic_recorded\recording_mic_2025-03-24_12h18.45.381.wav,49,49,0,49,,,,,
302.0326839000918,303.47979700006545,3.0162903000600636,3.0162903000600636,,303.4962338000769,308.0126272001071,2025-03-24_12h13.39.302,tid_psam_main_experiment,2025-03-24 12h13.43.426465 +0100,302.5130368000828,-0.0005535000236704946,0.5015013000229374,60.01197838428649,2.999562400043942,4.001658400055021,,,,,,,,C:\Experiments\tid_psam\psam\experiment_script\..\data\BIDS\sub-99\beh\sub-99_tid_psam_main_experiment_2025-03-24_12h13.39.302_mic_recorded\recording_mic_2025-03-24_12h18.51.346.wav,2.4997367000905797,4.001658400055021,,99,No,0,0,99,5.67000824958086e-05,5.67000824958086e-05,0,None,303.49620196671844,303.4962338000769,None,2024.2.4,None,sub-99,,303.4962338000769,306.49605920002796,Passive,22,303.4962338000769,307.9981225000229,5.67000824958086e-05,1.0018921000882983,50,0,302.04850020003505,50,303.4798460000893,307.99834770010784,C:\Experiments\tid_psam\psam\experiment_script\..\data\BIDS\sub-99\beh\sub-99_tid_psam_main_experiment_2025-03-24_12h13.39.302_mic_recorded\recording_mic_2025-03-24_12h18.51.346.wav,50,50,0,50,,,,,
307.998762800009,309.66480310005136,3.0331705999560654,3.0143789999419823,,309.68138590001035,314.2290217000991,2025-03-24_12h13.39.302,tid_psam_main_experiment,2025-03-24 12h13.43.426465 +0100,308.4793663000455,-0.00041749991942197084,0.49955040006898344,60.01197838428649,3.0143789999419823,4.033087599906139,,,,,,,,C:\Experiments\tid_psam\psam\experiment_script\..\data\BIDS\sub-99\beh\sub-99_tid_psam_main_experiment_2025-03-24_12h13.39.302_mic_recorded\recording_mic_2025-03-24_12h18.57.558.wav,2.5143271998967975,4.033087599906139,,99,No,0,0,99,5.889998283237219e-05,5.889998283237219e-05,0,None,309.68134366668914,309.68138590001035,None,2024.2.4,None,sub-99,,309.68138590001035,312.69794360001106,Passive,22,309.68138590001035,314.19566170009784,5.889998283237219e-05,1.014456299948506,51,0,308.0126272001071,51,309.6648524000775,314.2126174001023,C:\Experiments\tid_psam\psam\experiment_script\..\data\BIDS\sub-99\beh\sub-99_tid_psam_main_experiment_2025-03-24_12h13.39.302_mic_recorded\recording_mic_2025-03-24_12h18.57.558.wav,51,51,0,51,,,,,
314.21304940001573,316.14796030009165,3.0161992999492213,3.0161992999492213,,316.16228650009725,320.69535400008317,2025-03-24_12h13.39.302,tid_psam_main_experiment,2025-03-24 12h13.43.426465 +0100,314.66230000008363,0.014203900005668402,0.5308454999467358,60.01197838428649,3.0161992999492213,4.0162413999205455,,,,,,,,C:\Experiments\tid_psam\psam\experiment_script\..\data\BIDS\sub-99\beh\sub-99_tid_psam_main_experiment_2025-03-24_12h13.39.302_mic_recorded\recording_mic_2025-03-24_12h19.04.023.wav,2.499634200008586,3.997508900007233,,99,No,0,0,99,5.7699973694980145e-05,5.7699973694980145e-05,0,None,316.1644888667545,316.16228650009725,None,2024.2.4,None,sub-99,,316.16228650009725,319.1641502000857,Passive,22,316.16228650009725,320.66199650010094,5.7699973694980145e-05,0.9975583999184892,52,0,314.2290217000991,52,316.1480174000608,320.6789098000154,C:\Experiments\tid_psam\psam\experiment_script\..\data\BIDS\sub-99\beh\sub-99_tid_psam_main_experiment_2025-03-24_12h13.39.302_mic_recorded\recording_mic_2025-03-24_12h19.04.023.wav,52,52,0,52,,,,,
320.6793348999927,321.68085920007434,3.016552900080569,3.016552900080569,,321.6952070000116,326.2305430000415,2025-03-24_12h13.39.302,tid_psam_main_experiment,2025-03-24 12h13.43.426465 +0100,321.1640471999999,0.016091999947093427,0.5139706999761984,60.01197838428649,2.999689600081183,3.999746200046502,,,,,,,,C:\Experiments\tid_psam\psam\experiment_script\..\data\BIDS\sub-99\beh\sub-99_tid_psam_main_experiment_2025-03-24_12h13.39.302_mic_recorded\recording_mic_2025-03-24_12h19.09.555.wav,2.514230400091037,4.016431100084446,,99,Yes,0.08,1,34,2.916346300044097,2.999689600081183,2.9,Late,324.58056846674685,324.66786620009225,Pitch,2024.2.4,C:\Experiments\tid_psam\psam\data\BIDS\stimuli\sub-99\sub-99_pitch_probe.wav,sub-99,,321.6952070000116,324.69737210008316,Active,21,321.6952070000116,326.19508990005124,0.0014345000963658094,0.9977103000273928,53,0,320.69535400008317,53,321.6822784000542,326.21198080002796,C:\Experiments\tid_psam\psam\experiment_script\..\data\BIDS\sub-99\beh\sub-99_tid_psam_main_experiment_2025-03-24_12h13.39.302_mic_recorded\recording_mic_2025-03-24_12h19.09.555.wav,53,53,0,53,,,,,
326.21239660005085,327.6284999999916,3.035017400048673,3.0163028000388294,,327.64491120004095,332.19672740006354,2025-03-24_12h13.39.302,tid_psam_main_experiment,2025-03-24 12h13.43.426465 +0100,326.67829720000736,0.016418500104919076,0.5140804999973625,60.01197838428649,2.9997053999686614,4.001569699961692,,,,,,,,C:\Experiments\tid_psam\psam\experiment_script\..\data\BIDS\sub-99\beh\sub-99_tid_psam_main_experiment_2025-03-24_12h13.39.302_mic_recorded\recording_mic_2025-03-24_12h19.15.520.wav,2.499568899977021,4.001569699961692,,99,Yes,0.08,1,41,2.7994869999820367,2.8871318000601605,2.8,Early,330.43030436669164,330.51561740005855,Normal,2024.2.4,C:\Experiments\tid_psam\psam\data\BIDS\stimuli\sub-99\sub-99_normal_probe.wav,sub-99,,327.64491120004095,330.6447792000836,Passive,22,327.64491120004095,332.14455420000013,0.0014732000418007374,0.9996609999798238,54,0,326.2305430000415,54,327.62995680002496,332.1781602000119,C:\Experiments\tid_psam\psam\experiment_script\..\data\BIDS\sub-99\beh\sub-99_tid_psam_main_experiment_2025-03-24_12h13.39.302_mic_recorded\recording_mic_2025-03-24_12h19.15.520.wav,54,54,0,54,,,,,
332.17858780000824,333.5472002000315,3.030688999919221,3.013826399925165,,333.5635111000156,338.11099990003277,2025-03-24_12h13.39.302,tid_psam_main_experiment,2025-03-24 12h13.43.426465 +0100,332.6280165000353,-0.0004726999904960394,0.4995320000452921,60.01197838428649,3.013826399925165,4.015952599933371,,,,,,,,C:\Experiments\tid_psam\psam\experiment_script\..\data\BIDS\sub-99\beh\sub-99_tid_psam_main_experiment_2025-03-24_12h13.39.302_mic_recorded\recording_mic_2025-03-24_12h19.21.435.wav,2.4994285999564454,3.9993190999375656,,99,No,0,0,99,0.0014375000027939677,0.0014375000027939677,0,None,333.5635247667708,333.5635111000156,None,2024.2.4,None,sub-99,,333.5635111000156,336.57785190001596,Active,21,333.5635111000156,338.06313090003096,0.0014375000027939677,1.014010899933055,55,0,332.19672740006354,55,333.5486295000883,338.09462150000036,C:\Experiments\tid_psam\psam\experiment_script\..\data\BIDS\sub-99\beh\sub-99_tid_psam_main_experiment_2025-03-24_12h13.39.302_mic_recorded\recording_mic_2025-03-24_12h19.21.435.wav,55,55,0,55,,,,,
338.095043700072,339.2444506000029,3.0185184000292793,3.0185184000292793,,339.2610169000691,343.7963086999953,2025-03-24_12h13.39.302,tid_psam_main_experiment,2025-03-24 12h13.43.426465 +0100,338.54449360002764,0.01589599996805191,0.5137966999318451,60.01197838428649,2.999774800031446,4.016214799950831,,,,,,,,C:\Experiments\tid_psam\psam\experiment_script\..\data\BIDS\sub-99\beh\sub-99_tid_psam_main_experiment_2025-03-24_12h13.39.302_mic_recorded\recording_mic_2025-03-24_12h19.27.117.wav,2.5017834999598563,4.016214799950831,,99,Yes,0.08,1,31,2.7995642999885604,2.8891976999584585,2.8,Early,342.04620696668667,342.13363460008986,Normal,2024.2.4,C:\Experiments\tid_psam\psam\data\BIDS\stimuli\sub-99\sub-99_normal_probe.wav,sub-99,,339.2610169000691,342.2629394000396,Active,21,339.2610169000691,343.76272460003383,0.0003111000405624509,0.9998397999443114,56,0,338.11099990003277,56,339.2447526000906,343.7776904000202,C:\Experiments\tid_psam\psam\experiment_script\..\data\BIDS\sub-99\beh\sub-99_tid_psam_main_experiment_2025-03-24_12h13.39.302_mic_recorded\recording_mic_2025-03-24_12h19.27.117.wav,56,56,0,56,,,,,
343.77812760008965,345.14423540001735,3.016213300055824,3.001657100045122,,345.16268130007666,349.69576520007104,2025-03-24_12h13.39.302,tid_psam_main_experiment,2025-03-24 12h13.43.426465 +0100,344.2460146000376,0.0015782000264152884,0.516172599978745,60.01197838428649,3.001657100045122,3.999374100007117,,,,,,,,C:\Experiments\tid_psam\psam\experiment_script\..\data\BIDS\sub-99\beh\sub-99_tid_psam_main_experiment_2025-03-24_12h13.39.302_mic_recorded\recording_mic_2025-03-24_12h19.33.014.wav,2.501564500038512,3.999374100007117,,99,No,0,0,99,0.0013118000933900476,0.0013118000933900476,0,None,345.16058496671417,345.16268130007666,None,2024.2.4,None,sub-99,,345.16268130007666,348.1604285000358,Passive,22,345.16268130007666,349.6768801000435,0.0013118000933900476,1.0017075000796467,57,0,343.7963086999953,57,345.1455400000559,349.6771737000672,C:\Experiments\tid_psam\psam\experiment_script\..\data\BIDS\sub-99\beh\sub-99_tid_psam_main_experiment_2025-03-24_12h13.39.302_mic_recorded\recording_mic_2025-03-24_12h19.33.014.wav,57,57,0,57,,,,,
349.6776436000364,350.86256600008346,3.0308896000497043,3.0142229000339285,,350.87690200004727,355.4287697999971,2025-03-24_12h13.39.302,tid_psam_main_experiment,2025-03-24 12h13.43.426465 +0100,350.1436074000085,-0.0006182999350130558,0.5182156000519171,60.01197838428649,2.9996833000332117,3.9973927000537515,,,,,,,,C:\Experiments\tid_psam\psam\experiment_script\..\data\BIDS\sub-99\beh\sub-99_tid_psam_main_experiment_2025-03-24_12h13.39.302_mic_recorded\recording_mic_2025-03-24_12h19.38.747.wav,2.4996176999993622,3.9973927000537515,,99,Yes,0.08,1,44,2.899601500015706,2.9857060000067577,2.9,Late,353.76221066672974,353.84825820010155,Pitch,2024.2.4,C:\Experiments\tid_psam\psam\data\BIDS\stimuli\sub-99\sub-99_pitch_probe.wav,sub-99,,350.87690200004727,353.87675970001146,Passive,22,350.87690200004727,355.3767068000743,0.00032860005740076303,0.9976254000794142,58,0,349.69576520007104,58,350.86287080007605,355.4102910000365,C:\Experiments\tid_psam\psam\experiment_script\..\data\BIDS\sub-99\beh\sub-99_tid_psam_main_experiment_2025-03-24_12h13.39.302_mic_recorded\recording_mic_2025-03-24_12h19.38.747.wav,58,58,0,58,,,,,
355.41070540004876,357.04348920006305,3.0329830000409856,3.0162923000752926,,357.05984670005273,361.5952954000095,2025-03-24_12h13.39.302,tid_psam_main_experiment,2025-03-24 12h13.43.426465 +0100,355.87665390002076,-0.000506300013512373,0.4973232999909669,60.01197838428649,2.9996246000519022,4.001564800040796,,,,,,,,C:\Experiments\tid_psam\psam\experiment_script\..\data\BIDS\sub-99\beh\sub-99_tid_psam_main_experiment_2025-03-24_12h13.39.302_mic_recorded\recording_mic_2025-03-24_12h19.44.913.wav,2.4996159001020715,4.001564800040796,,99,No,0,0,99,0.0011831000447273254,0.0011831000447273254,0,None,357.05981706671105,357.05984670005273,None,2024.2.4,None,sub-99,,357.05984670005273,360.0597476999974,Active,21,357.05984670005273,361.5596869000001,0.0011831000447273254,0.9996846000431105,59,0,355.4287697999971,59,357.0446627000347,361.57874560006894,C:\Experiments\tid_psam\psam\experiment_script\..\data\BIDS\sub-99\beh\sub-99_tid_psam_main_experiment_2025-03-24_12h13.39.302_mic_recorded\recording_mic_2025-03-24_12h19.44.913.wav,59,59,0,59,,,,,
361.5791516000172,363.14312370005064,3.0352176999440417,3.0019015999278054,,363.161807000055,367.7115163000999,2025-03-24_12h13.39.302,tid_psam_main_experiment,2025-03-24 12h13.43.426465 +0100,362.0429734000936,-0.0005060998955741525,0.4995106999995187,60.01197838428649,3.0019015999278054,4.001758499885909,,,,,,,,C:\Experiments\tid_psam\psam\experiment_script\..\data\BIDS\sub-99\beh\sub-99_tid_psam_main_experiment_2025-03-24_12h13.39.302_mic_recorded\recording_mic_2025-03-24_12h19.51.027.wav,2.4997110998956487,4.001758499885909,,99,Yes,0.08,1,32,2.799693899927661,2.8863467999035493,2.8,Early,365.942739466733,366.0294539000606,Pitch,2024.2.4,C:\Experiments\tid_psam\psam\data\BIDS\stimuli\sub-99\sub-99_pitch_probe.wav,sub-99,,363.161807000055,366.15946710004937,Active,21,363.161807000055,367.6781278999988,0.0003179999766871333,1.0164640999864787,60,0,361.5952954000095,60,363.1434322000714,367.6950218999991,C:\Experiments\tid_psam\psam\experiment_script\..\data\BIDS\sub-99\beh\sub-99_tid_psam_main_experiment_2025-03-24_12h13.39.302_mic_recorded\recording_mic_2025-03-24_12h19.51.027.wav,60,60,0,60,,,,,
367.6954603000777,369.576154600014,3.0183713000733405,3.0017905000131577,,369.59485520003363,374.12768060003873,2025-03-24_12h13.39.302,tid_psam_main_experiment,2025-03-24 12h13.43.426465 +0100,368.1426024000393,-0.0005087000317871571,0.5017155999084935,60.01197838428649,3.0017905000131577,4.01836850005202,,,,,,,,C:\Experiments\tid_psam\psam\experiment_script\..\data\BIDS\sub-99\beh\sub-99_tid_psam_main_experiment_2025-03-24_12h13.39.302_mic_recorded\recording_mic_2025-03-24_12h19.57.443.wav,2.5017515000654384,4.01836850005202,,99,Yes,0.08,1,33,2.9017056999728084,2.9880935000255704,2.9,Late,372.4757013667297,372.5642419999931,Normal,2024.2.4,C:\Experiments\tid_psam\psam\data\BIDS\stimuli\sub-99\sub-99_normal_probe.wav,sub-99,,369.59485520003363,372.5945101000834,Active,21,369.59485520003363,374.11105350009166,0.0005094000371173024,1.0162504999898374,61,0,367.7115163000999,61,369.57666230003815,374.11132260004524,C:\Experiments\tid_psam\psam\experiment_script\..\data\BIDS\sub-99\beh\sub-99_tid_psam_main_experiment_2025-03-24_12h13.39.302_mic_recorded\recording_mic_2025-03-24_12h19.57.443.wav,61,61,0,61,,,,,
374.1117716000881,375.9777747000335,3.03084439993836,3.014199399971403,,375.99423140008,380.543953500106,2025-03-24_12h13.39.302,tid_psam_main_experiment,2025-03-24 12h13.43.426465 +0100,374.57547430007253,-0.0006765000289306045,0.5015961000462994,60.01197838428649,3.014199399971403,4.014215599978343,,,,,,,,C:\Experiments\tid_psam\psam\experiment_script\..\data\BIDS\sub-99\beh\sub-99_tid_psam_main_experiment_2025-03-24_12h13.39.302_mic_recorded\recording_mic_2025-03-24_12h20.03.856.wav,2.4998078999342397,3.9973846999928355,,99,No,0,0,99,5.5299955420196056e-05,5.5299955420196056e-05,0,None,375.9943213667177,375.99423140008,None,2024.2.4,None,sub-99,,375.99423140008,379.0085848000599,Active,21,375.99423140008,380.50847680005245,5.5299955420196056e-05,1.0143175999401137,62,0,374.12768060003873,62,375.97782000002917,380.52546710008755,C:\Experiments\tid_psam\psam\experiment_script\..\data\BIDS\sub-99\beh\sub-99_tid_psam_main_experiment_2025-03-24_12h13.39.302_mic_recorded\recording_mic_2025-03-24_12h20.03.856.wav,62,62,0,62,,,,,
380.525884600007,381.8753552000271,3.002006100025028,3.002006100025028,,381.8939670000691,386.40822710003704,2025-03-24_12h13.39.302,tid_psam_main_experiment,2025-03-24 12h13.43.426465 +0100,380.99405410001054,-0.0005228000227361917,0.5140357000054792,60.01197838428649,3.002006100025028,4.001713000005111,,,,,,,,C:\Experiments\tid_psam\psam\experiment_script\..\data\BIDS\sub-99\beh\sub-99_tid_psam_main_experiment_2025-03-24_12h13.39.302_mic_recorded\recording_mic_2025-03-24_12h20.09.721.wav,2.5018606000812724,4.001713000005111,,99,No,0,0,99,8.98001017048955e-05,8.98001017048955e-05,0,None,381.8918029667732,381.8939670000691,None,2024.2.4,None,sub-99,,381.8939670000691,384.8916229000315,Active,21,381.8939670000691,386.39156250003725,8.98001017048955e-05,1.0019364000763744,63,0,380.543953500106,63,381.8754313000245,386.39184560009744,C:\Experiments\tid_psam\psam\experiment_script\..\data\BIDS\sub-99\beh\sub-99_tid_psam_main_experiment_2025-03-24_12h13.39.302_mic_recorded\recording_mic_2025-03-24_12h20.09.721.wav,63,63,0,63,,,,,
386.3922601999948,387.69374940008856,3.01646349998191,3.01646349998191,,387.7081673000939,392.2246645000996,2025-03-24_12h13.39.302,tid_psam_main_experiment,2025-03-24 12h13.43.426465 +0100,386.874906900106,-0.0004395999712869525,0.5183100000722334,60.01197838428649,3.01646349998191,4.030825500027277,,,,,,,,C:\Experiments\tid_psam\psam\experiment_script\..\data\BIDS\sub-99\beh\sub-99_tid_psam_main_experiment_2025-03-24_12h13.39.302_mic_recorded\recording_mic_2025-03-24_12h20.15.537.wav,2.5142685000319034,4.030825500027277,,99,No,0,0,99,0.0010178000666201115,0.0010178000666201115,0,None,387.7102905667309,387.7081673000939,None,2024.2.4,None,sub-99,,387.7081673000939,390.71019590005744,Passive,22,387.7081673000939,392.21022040001117,0.0010178000666201115,0.9978575999848545,64,0,386.40822710003704,64,387.6947552000638,392.2105409000069,C:\Experiments\tid_psam\psam\experiment_script\..\data\BIDS\sub-99\beh\sub-99_tid_psam_main_experiment_2025-03-24_12h13.39.302_mic_recorded\recording_mic_2025-03-24_12h20.15.537.wav,64,64,0,64,,,,,
392.2109716000268,393.5582329001045,3.018399600056,3.018399600056,,393.5744910000358,398.10761140007526,2025-03-24_12h13.39.302,tid_psam_main_experiment,2025-03-24 12h13.43.426465 +0100,392.7079241001047,-0.00034989998675882816,0.4974017000058666,60.01197838428649,2.9995052999584004,4.018255800008774,,,,,,,,C:\Experiments\tid_psam\psam\experiment_script\..\data\BIDS\sub-99\beh\sub-99_tid_psam_main_experiment_2025-03-24_12h13.39.302_mic_recorded\recording_mic_2025-03-24_12h20.21.419.wav,2.499466300010681,3.9994468999793753,,99,Yes,0.08,1,31,2.7994595000054687,2.8900621000211686,2.8,Early,396.3576421667278,396.44827950000763,Normal,2024.2.4,C:\Experiments\tid_psam\psam\data\BIDS\stimuli\sub-99\sub-99_normal_probe.wav,sub-99,,393.5744910000358,396.57660690008197,Active,21,393.5744910000358,398.0764024000382,0.0012753000482916832,1.001724399975501,65,0,392.2246645000996,65,393.55949450004846,398.0934506000485,C:\Experiments\tid_psam\psam\experiment_script\..\data\BIDS\sub-99\beh\sub-99_tid_psam_main_experiment_2025-03-24_12h13.39.302_mic_recorded\recording_mic_2025-03-24_12h20.21.419.wav,65,65,0,65,,,,,
398.0938833000837,399.09110409999266,3.0329074999317527,3.001682600006461,,399.1076517000329,403.6572560000932,2025-03-24_12h13.39.302,tid_psam_main_experiment,2025-03-24 12h13.43.426465 +0100,398.55768010008615,-0.0005375000182539225,0.5016117000486702,60.01197838428649,3.001682600006461,3.9994530000258237,,,,,,,,C:\Experiments\tid_psam\psam\experiment_script\..\data\BIDS\sub-99\beh\sub-99_tid_psam_main_experiment_2025-03-24_12h13.39.302_mic_recorded\recording_mic_2025-03-24_12h20.26.967.wav,2.499681600020267,4.016121399938129,,99,Yes,0.08,1,34,2.901804499910213,2.985312799923122,2.9,Late,401.9928939666754,402.0764089000877,Pitch,2024.2.4,C:\Experiments\tid_psam\psam\data\BIDS\stimuli\sub-99\sub-99_pitch_probe.wav,sub-99,,399.1076517000329,402.1073551001027,Active,21,399.1076517000329,403.60714440001175,0.00048699998296797276,0.9997174999443814,66,0,398.10761140007526,66,399.09158230002504,403.6429220000282,C:\Experiments\tid_psam\psam\experiment_script\..\data\BIDS\sub-99\beh\sub-99_tid_psam_main_experiment_2025-03-24_12h13.39.302_mic_recorded\recording_mic_2025-03-24_12h20.26.967.wav,66,66,0,66,,,,,
403.6433605001075,404.8907298000995,3.01618400006555,3.01618400006555,,404.90718860004563,409.42352760001086,2025-03-24_12h13.39.302,tid_psam_main_experiment,2025-03-24 12h13.43.426465 +0100,404.09047799999826,-0.0006158000323921442,0.5020135999657214,60.01197838428649,2.9995491000590846,4.00171290000435,,,,,,,,C:\Experiments\tid_psam\psam\experiment_script\..\data\BIDS\sub-99\beh\sub-99_tid_psam_main_experiment_2025-03-24_12h13.39.302_mic_recorded\recording_mic_2025-03-24_12h20.32.731.wav,2.501767300069332,4.00171290000435,,99,No,0,0,99,0.0013790000230073929,0.0013790000230073929,0,None,404.9071622667291,404.90718860004563,None,2024.2.4,None,sub-99,,404.90718860004563,407.90688140003476,Passive,22,404.90718860004563,409.4089925000444,0.0013790000230073929,1.0017831000732258,67,0,403.6572560000932,67,404.8920971000334,409.40925110003445,C:\Experiments\tid_psam\psam\experiment_script\..\data\BIDS\sub-99\beh\sub-99_tid_psam_main_experiment_2025-03-24_12h13.39.302_mic_recorded\recording_mic_2025-03-24_12h20.32.731.wav,67,67,0,67,,,,,
409.4096808000468,410.77369820000604,3.0328719000099227,3.016306599951349,,410.79016460001003,415.3231826000847,2025-03-24_12h13.39.302,tid_psam_main_experiment,2025-03-24 12h13.43.426465 +0100,409.8924085000763,0.0016949999844655395,0.4994117000605911,60.01197838428649,2.9996235000435263,3.999474999960512,,,,,,,,C:\Experiments\tid_psam\psam\experiment_script\..\data\BIDS\sub-99\beh\sub-99_tid_psam_main_experiment_2025-03-24_12h13.39.302_mic_recorded\recording_mic_2025-03-24_12h20.38.628.wav,2.4995732000097632,4.016160500003025,,99,Yes,0.08,1,42,2.799554800032638,2.885128500056453,2.8,Early,413.573267266682,413.65881280007306,Pitch,2024.2.4,C:\Experiments\tid_psam\psam\data\BIDS\stimuli\sub-99\sub-99_pitch_probe.wav,sub-99,,410.79016460001003,413.78995630005375,Passive,22,410.79016460001003,415.2899287000764,0.0003066000062972307,0.999663700000383,68,0,409.42352760001086,68,410.7739945000503,415.3068786000367,C:\Experiments\tid_psam\psam\experiment_script\..\data\BIDS\sub-99\beh\sub-99_tid_psam_main_experiment_2025-03-24_12h13.39.302_mic_recorded\recording_mic_2025-03-24_12h20.38.628.wav,68,68,0,68,,,,,
415.3073397000553,416.48993750009686,3.018491700058803,3.0018903999589384,,416.5064390000189,421.0395443000598,2025-03-24_12h13.39.302,tid_psam_main_experiment,2025-03-24 12h13.43.426465 +0100,415.7731356000295,-0.0005523000145331025,0.4995531999738887,60.01197838428649,3.0018903999589384,4.001798499957658,,,,,,,,C:\Experiments\tid_psam\psam\experiment_script\..\data\BIDS\sub-99\beh\sub-99_tid_psam_main_experiment_2025-03-24_12h13.39.302_mic_recorded\recording_mic_2025-03-24_12h20.44.343.wav,2.4997075999854133,4.001798499957658,,99,Yes,0.08,1,41,2.801867200061679,2.8863316000206396,2.8,Early,419.29191316670426,419.3762571000261,Normal,2024.2.4,C:\Experiments\tid_psam\psam\data\BIDS\stimuli\sub-99\sub-99_normal_probe.wav,sub-99,,416.5064390000189,419.5084056000924,Passive,22,416.5064390000189,421.00620310008526,0.0003182999789714813,1.0019266000017524,69,0,415.3231826000847,69,416.4902460000012,421.0231322000036,C:\Experiments\tid_psam\psam\experiment_script\..\data\BIDS\sub-99\beh\sub-99_tid_psam_main_experiment_2025-03-24_12h13.39.302_mic_recorded\recording_mic_2025-03-24_12h20.44.343.wav,69,69,0,69,,,,,
421.0235539000714,422.2063405000372,3.018435399979353,3.018435399979353,,422.22491069999523,426.75592340005096,2025-03-24_12h13.39.302,tid_psam_main_experiment,2025-03-24 12h13.43.426465 +0100,421.48946820001584,-0.0004558999789878726,0.5183875999646261,60.01197838428649,2.999572700005956,4.001827899948694,,,,,,,,C:\Experiments\tid_psam\psam\experiment_script\..\data\BIDS\sub-99\beh\sub-99_tid_psam_main_experiment_2025-03-24_12h13.39.302_mic_recorded\recording_mic_2025-03-24_12h20.50.058.wav,2.4997249000007287,4.001827899948694,,99,No,0,0,99,0.0012637999607250094,0.0012637999607250094,0,None,422.2227451666879,422.22491069999523,None,2024.2.4,None,sub-99,,422.22491069999523,425.23926950001623,Active,21,422.22491069999523,426.73926870001014,0.0012637999607250094,1.0164769999682903,70,0,421.0395443000598,70,422.2075903000077,426.73951109999325,C:\Experiments\tid_psam\psam\experiment_script\..\data\BIDS\sub-99\beh\sub-99_tid_psam_main_experiment_2025-03-24_12h13.39.302_mic_recorded\recording_mic_2025-03-24_12h20.50.058.wav,70,70,0,70,,,,,
426.7399240999948,428.4750916000921,3.030720300041139,3.0011417999630794,,428.4891120000975,433.0389494000701,2025-03-24_12h13.39.302,tid_psam_main_experiment,2025-03-24 12h13.43.426465 +0100,427.20806269999593,0.0017352999420836568,0.4995450999122113,60.01197838428649,3.0011417999630794,3.997174400021322,,,,,,,,C:\Experiments\tid_psam\psam\experiment_script\..\data\BIDS\sub-99\beh\sub-99_tid_psam_main_experiment_2025-03-24_12h13.39.302_mic_recorded\recording_mic_2025-03-24_12h20.56.341.wav,2.513900800026022,4.030511099961586,,99,Yes,0.08,1,44,2.913783699972555,3.0011417999630794,2.9,Late,431.38892086671353,431.4762225000886,Pitch,2024.2.4,C:\Experiments\tid_psam\psam\data\BIDS\stimuli\sub-99\sub-99_pitch_probe.wav,sub-99,,428.4891120000975,431.48906759999227,Passive,22,428.4891120000975,432.98897890001535,0.001597600057721138,0.9973332000663504,71,0,426.75592340005096,71,428.4766815000912,433.02463270002045,C:\Experiments\tid_psam\psam\experiment_script\..\data\BIDS\sub-99\beh\sub-99_tid_psam_main_experiment_2025-03-24_12h13.39.302_mic_recorded\recording_mic_2025-03-24_12h20.56.341.wav,71,71,0,71,,,,,
433.02503920008894,433.9890324000735,3.035112800076604,3.0017416999908164,,434.0077784000896,438.5573852000525,2025-03-24_12h13.39.302,tid_psam_main_experiment,2025-03-24 12h13.43.426465 +0100,433.4721452000085,0.013726499979384243,0.513720600050874,60.01197838428649,3.0017416999908164,4.01634810003452,,,,,,,,C:\Experiments\tid_psam\psam\experiment_script\..\data\BIDS\sub-99\beh\sub-99_tid_psam_main_experiment_2025-03-24_12h13.39.302_mic_recorded\recording_mic_2025-03-24_12h21.01.855.wav,2.5017279000021517,4.01634810003452,,99,No,0,0,99,0.0011350000277161598,0.0011350000277161598,0,None,434.0054745666605,434.0077784000896,None,2024.2.4,None,sub-99,,434.0077784000896,437.0075289000524,Active,21,434.0077784000896,438.5240624001017,0.0011350000277161598,1.0186913000652567,72,0,433.0389494000701,72,433.9901540999999,438.5388920000987,C:\Experiments\tid_psam\psam\experiment_script\..\data\BIDS\sub-99\beh\sub-99_tid_psam_main_experiment_2025-03-24_12h13.39.302_mic_recorded\recording_mic_2025-03-24_12h21.01.855.wav,72,72,0,72,,,,,
438.5393197000958,439.5054447000148,3.0350366999628022,3.0016998999053612,,439.52191580005456,444.07376230007503,2025-03-24_12h13.39.302,tid_psam_main_experiment,2025-03-24 12h13.43.426465 +0100,438.98848910001107,-0.0005318999756127596,0.4994702000403777,60.01197838428649,3.0016998999053612,4.016270899912342,,,,,,,,C:\Experiments\tid_psam\psam\experiment_script\..\data\BIDS\sub-99\beh\sub-99_tid_psam_main_experiment_2025-03-24_12h13.39.302_mic_recorded\recording_mic_2025-03-24_12h21.07.370.wav,2.5016846999060363,3.9995249999919906,,99,Yes,0.08,1,32,2.801680799922906,2.893695699982345,2.8,Early,442.3072027667115,442.399131400045,Pitch,2024.2.4,C:\Experiments\tid_psam\psam\data\BIDS\stimuli\sub-99\sub-99_pitch_probe.wav,sub-99,,439.52191580005456,442.5237669000635,Active,21,439.52191580005456,444.02378050005063,0.0005175999831408262,0.9996326999971643,73,0,438.5573852000525,73,439.5059465999948,444.05548610002734,C:\Experiments\tid_psam\psam\experiment_script\..\data\BIDS\sub-99\beh\sub-99_tid_psam_main_experiment_2025-03-24_12h13.39.302_mic_recorded\recording_mic_2025-03-24_12h21.07.370.wav,73,73,0,73,,,,,
444.0559159000404,445.873998700059,3.0307340000290424,3.014053500024602,,445.88815430004615,450.44005790003575,2025-03-24_12h13.39.302,tid_psam_main_experiment,2025-03-24 12h13.43.426465 +0100,444.50496690010186,-0.0004686000756919384,0.5015741999959573,60.01197838428649,3.014053500024602,4.016233699978329,,,,,,,,C:\Experiments\tid_psam\psam\experiment_script\..\data\BIDS\sub-99\beh\sub-99_tid_psam_main_experiment_2025-03-24_12h13.39.302_mic_recorded\recording_mic_2025-03-24_12h21.13.737.wav,2.5140478999819607,4.016233699978329,,99,No,0,0,99,0.0013853999553248286,0.0013853999553248286,0,None,445.8903514666638,445.88815430004615,None,2024.2.4,None,sub-99,,445.88815430004615,448.8880450000288,Passive,22,445.88815430004615,450.390358600067,0.0013853999553248286,0.9996497000101954,74,0,444.07376230007503,74,445.87537580006756,450.4238740000874,C:\Experiments\tid_psam\psam\experiment_script\..\data\BIDS\sub-99\beh\sub-99_tid_psam_main_experiment_2025-03-24_12h13.39.302_mic_recorded\recording_mic_2025-03-24_12h21.13.737.wav,74,74,0,74,,,,,
450.4244837000733,451.45485680003185,3.0326956000644714,3.001625300035812,,451.4732878000941,456.004238500027,2025-03-24_12h13.39.302,tid_psam_main_experiment,2025-03-24 12h13.43.426465 +0100,450.8733827000251,-0.0006082999752834439,0.49932319996878505,60.01197838428649,3.001625300035812,3.9994312000926584,,,,,,,,C:\Experiments\tid_psam\psam\experiment_script\..\data\BIDS\sub-99\beh\sub-99_tid_psam_main_experiment_2025-03-24_12h13.39.302_mic_recorded\recording_mic_2025-03-24_12h21.19.299.wav,2.499469200032763,4.016213600058109,,99,No,0,0,99,9.310001041740179e-05,9.310001041740179e-05,0,None,451.47122586676073,451.4732878000941,None,2024.2.4,None,sub-99,,451.4732878000941,454.4709724000422,Passive,22,451.4732878000941,455.97090760001447,9.310001041740179e-05,1.0183075000531971,75,0,450.44005790003575,75,451.45493440004066,455.98784340010025,C:\Experiments\tid_psam\psam\experiment_script\..\data\BIDS\sub-99\beh\sub-99_tid_psam_main_experiment_2025-03-24_12h13.39.302_mic_recorded\recording_mic_2025-03-24_12h21.19.299.wav,75,75,0,75,,,,,
455.98830260010436,457.52303380006924,3.014359900029376,3.014359900029376,,457.5390300001018,462.0559736000141,2025-03-24_12h13.39.302,tid_psam_main_experiment,2025-03-24 12h13.43.426465 +0100,456.45419320010114,-0.0006587000098079443,0.4992839000187814,60.01197838428649,3.014359900029376,4.0143016000511125,,,,,,,,C:\Experiments\tid_psam\psam\experiment_script\..\data\BIDS\sub-99\beh\sub-99_tid_psam_main_experiment_2025-03-24_12h13.39.302_mic_recorded\recording_mic_2025-03-24_12h21.25.349.wav,2.51428450003732,4.033025000011548,,99,No,0,0,99,0.0009496000129729509,0.0009496000129729509,0,None,457.53956806665906,457.5390300001018,None,2024.2.4,None,sub-99,,457.5390300001018,460.5541781000793,Active,21,457.5390300001018,462.03946960007306,0.0009496000129729509,1.0000452999956906,76,0,456.004238500027,76,457.52396990009584,462.0396912000142,C:\Experiments\tid_psam\psam\experiment_script\..\data\BIDS\sub-99\beh\sub-99_tid_psam_main_experiment_2025-03-24_12h13.39.302_mic_recorded\recording_mic_2025-03-24_12h21.25.349.wav,76,76,0,76,,,,,
462.040098400088,463.1393706999952,3.0165620000334457,3.0165620000334457,,463.15601860010065,467.68894720007665,2025-03-24_12h13.39.302,tid_psam_main_experiment,2025-03-24 12h13.43.426465 +0100,462.53928260004614,0.016262000077404082,0.516288600047119,60.01197838428649,2.999773500021547,4.016351500060409,,,,,,,,C:\Experiments\tid_psam\psam\experiment_script\..\data\BIDS\sub-99\beh\sub-99_tid_psam_main_experiment_2025-03-24_12h13.39.302_mic_recorded\recording_mic_2025-03-24_12h21.30.980.wav,2.499902099953033,4.016351500060409,,99,No,0,0,99,5.489995237439871e-05,5.489995237439871e-05,0,None,463.1559203667023,463.15601860010065,None,2024.2.4,None,sub-99,,463.15601860010065,466.15590370004065,Active,21,463.15601860010065,467.67231010005344,5.489995237439871e-05,1.0144012999953702,77,0,462.0559736000141,77,463.1394175000023,467.6725808000192,C:\Experiments\tid_psam\psam\experiment_script\..\data\BIDS\sub-99\beh\sub-99_tid_psam_main_experiment_2025-03-24_12h13.39.302_mic_recorded\recording_mic_2025-03-24_12h21.30.980.wav,77,77,0,77,,,,,
467.67299390002154,468.8369672000408,3.0185908999992535,3.0185908999992535,,468.8533654001076,473.3867606000276,2025-03-24_12h13.39.302,tid_psam_main_experiment,2025-03-24 12h13.43.426465 +0100,468.1534271000419,0.014075499959290028,0.5307059000479057,60.01197838428649,2.9997628000564873,4.0017546999733895,,,,,,,,C:\Experiments\tid_psam\psam\experiment_script\..\data\BIDS\sub-99\beh\sub-99_tid_psam_main_experiment_2025-03-24_12h13.39.302_mic_recorded\recording_mic_2025-03-24_12h21.36.677.wav,2.499699900043197,4.0017546999733895,,99,Yes,0.08,1,43,2.8997013000771403,2.9804834000533447,2.9,Late,471.73655896674995,471.8232204000233,Normal,2024.2.4,C:\Experiments\tid_psam\psam\data\BIDS\stimuli\sub-99\sub-99_normal_probe.wav,sub-99,,468.8533654001076,471.85552620003,Passive,22,468.8533654001076,473.35349790006876,0.0014674999983981252,1.001943500014022,78,0,467.68894720007665,78,468.83842740010004,473.37034770008177,C:\Experiments\tid_psam\psam\experiment_script\..\data\BIDS\sub-99\beh\sub-99_tid_psam_main_experiment_2025-03-24_12h13.39.302_mic_recorded\recording_mic_2025-03-24_12h21.36.677.wav,78,78,0,78,,,,,
473.37075860006735,475.2700790000381,3.0162073000101373,3.0162073000101373,,475.2864590000827,479.80284860008396,2025-03-24_12h13.39.302,tid_psam_main_experiment,2025-03-24 12h13.43.426465 +0100,473.8365364000201,-0.00042339996434748173,0.5016363000031561,60.01197838428649,2.9994742000708356,3.999641800066456,,,,,,,,C:\Experiments\tid_psam\psam\experiment_script\..\data\BIDS\sub-99\beh\sub-99_tid_psam_main_experiment_2025-03-24_12h13.39.302_mic_recorded\recording_mic_2025-03-24_12h21.43.092.wav,2.499606000026688,4.01620820001699,,99,Yes,0.08,1,33,2.9015592000214383,2.9994742000708356,2.9,Late,478.16969786672075,478.26066490006633,Normal,2024.2.4,C:\Experiments\tid_psam\psam\data\BIDS\stimuli\sub-99\sub-99_normal_probe.wav,sub-99,,475.2864590000827,478.2862377000274,Active,21,475.2864590000827,479.7863210000796,0.0017899000085890293,1.0018578000599518,79,0,473.3867606000276,79,475.27186169999186,479.7866983000422,C:\Experiments\tid_psam\psam\experiment_script\..\data\BIDS\sub-99\beh\sub-99_tid_psam_main_experiment_2025-03-24_12h13.39.302_mic_recorded\recording_mic_2025-03-24_12h21.43.092.wav,79,79,0,79,,,,,
479.78711520007346,481.569581800024,3.01633670006413,3.01633670006413,,481.58605410007294,486.1046132000629,2025-03-24_12h13.39.302,tid_psam_main_experiment,2025-03-24 12h13.43.426465 +0100,480.269503800082,-0.0005688000237569213,0.5160833999980241,60.01197838428649,2.99971290002577,4.001791300019249,,,,,,,,C:\Experiments\tid_psam\psam\experiment_script\..\data\BIDS\sub-99\beh\sub-99_tid_psam_main_experiment_2025-03-24_12h13.39.302_mic_recorded\recording_mic_2025-03-24_12h21.49.392.wav,2.499708899995312,4.001791300019249,,99,No,0,0,99,0.0010944000678136945,0.0010944000678136945,0,None,481.58605006669336,481.58605410007294,None,2024.2.4,None,sub-99,,481.58605410007294,484.58590430009644,Passive,22,481.58605410007294,486.0879390001064,0.0010944000678136945,1.0020114000653848,80,0,479.80284860008396,80,481.5706721000606,486.08819450007286,C:\Experiments\tid_psam\psam\experiment_script\..\data\BIDS\sub-99\beh\sub-99_tid_psam_main_experiment_2025-03-24_12h13.39.302_mic_recorded\recording_mic_2025-03-24_12h21.49.392.wav,80,80,0,80,,,,,
486.08864440000616,487.41931500006467,3.0184363999869674,3.0018551000393927,,487.43587970000226,491.9688136000186,2025-03-24_12h13.39.302,tid_psam_main_experiment,2025-03-24 12h13.43.426465 +0100,486.56914350006264,-0.0004368999507278204,0.516203899984248,60.01197838428649,3.0018551000393927,4.001735800062306,,,,,,,,C:\Experiments\tid_psam\psam\experiment_script\..\data\BIDS\sub-99\beh\sub-99_tid_psam_main_experiment_2025-03-24_12h13.39.302_mic_recorded\recording_mic_2025-03-24_12h21.55.254.wav,2.4995839999755844,4.001735800062306,,99,Yes,0.08,1,31,2.8017757000634447,2.8879826000193134,2.8,Early,490.22114246670776,490.3072903000284,Normal,2024.2.4,C:\Experiments\tid_psam\psam\data\BIDS\stimuli\sub-99\sub-99_normal_probe.wav,sub-99,,487.43587970000226,490.4377284999937,Active,21,487.43587970000226,491.93549560010433,0.0016051999991759658,1.001972600002773,81,0,486.1046132000629,81,487.4209131000098,491.95244700007606,C:\Experiments\tid_psam\psam\experiment_script\..\data\BIDS\sub-99\beh\sub-99_tid_psam_main_experiment_2025-03-24_12h13.39.302_mic_recorded\recording_mic_2025-03-24_12h21.55.254.wav,81,81,0,81,,,,,
491.9528951999964,492.95228140009567,3.02852100005839,3.02852100005839,,492.96870880003553,497.5018435000675,2025-03-24_12h13.39.302,tid_psam_main_experiment,2025-03-24 12h13.43.426465 +0100,492.4187644000631,-0.0005239000311121345,0.4994040000019595,60.01197838428649,2.9997246999992058,4.018441600026563,,,,,,,,C:\Experiments\tid_psam\psam\experiment_script\..\data\BIDS\sub-99\beh\sub-99_tid_psam_main_experiment_2025-03-24_12h13.39.302_mic_recorded\recording_mic_2025-03-24_12h22.00.786.wav,2.499763800064102,4.001678799977526,,99,Yes,0.08,1,44,2.899783300003037,2.9892171999672428,2.9,Late,495.8519898667621,495.9414852000773,Pitch,2024.2.4,C:\Experiments\tid_psam\psam\data\BIDS\stimuli\sub-99\sub-99_pitch_probe.wav,sub-99,,492.96870880003553,495.98077290004585,Passive,22,492.96870880003553,497.4706601999933,0.0012368999887257814,0.9997943000635132,82,0,491.9688136000186,82,492.9535068999976,497.48543230001815,C:\Experiments\tid_psam\psam\experiment_script\..\data\BIDS\sub-99\beh\sub-99_tid_psam_main_experiment_2025-03-24_12h13.39.302_mic_recorded\recording_mic_2025-03-24_12h22.00.786.wav,82,82,0,82,,,,,
497.48586380004417,499.2686167000793,3.0352142000338063,3.0016435999423265,,499.28492740006186,503.8347782000201,2025-03-24_12h13.39.302,tid_psam_main_experiment,2025-03-24 12h13.43.426465 +0100,497.95191890001297,-0.0003493999829515815,0.5015994999557734,60.01197838428649,3.0016435999423265,4.001643899944611,,,,,,,,C:\Experiments\tid_psam\psam\experiment_script\..\data\BIDS\sub-99\beh\sub-99_tid_psam_main_experiment_2025-03-24_12h13.39.302_mic_recorded\recording_mic_2025-03-24_12h22.07.118.wav,2.5017486000433564,4.001643899944611,,99,No,0,0,99,0.0012239000061526895,0.0012239000061526895,0,None,499.28502596676503,499.28492740006186,None,2024.2.4,None,sub-99,,499.28492740006186,502.2869021000806,Active,21,499.28492740006186,503.7849570000544,0.0012239000061526895,0.9997371999779716,83,0,497.5018435000675,83,499.2698342000367,503.8184916001046,C:\Experiments\tid_psam\psam\experiment_script\..\data\BIDS\sub-99\beh\sub-99_tid_psam_main_experiment_2025-03-24_12h13.39.302_mic_recorded\recording_mic_2025-03-24_12h22.07.118.wav,83,83,0,83,,,,,
503.8189143000636,505.75382280000485,3.030658100033179,3.0161468000151217,,505.76796150009613,510.3031095000915,2025-03-24_12h13.39.302,tid_psam_main_experiment,2025-03-24 12h13.43.426465 +0100,504.2680899000261,-0.000520500005222857,0.5163177000358701,60.01197838428649,2.9995741000166163,3.9993776000337675,,,,,,,,C:\Experiments\tid_psam\psam\experiment_script\..\data\BIDS\sub-99\beh\sub-99_tid_psam_main_experiment_2025-03-24_12h13.39.302_mic_recorded\recording_mic_2025-03-24_12h22.13.585.wav,2.516080699977465,4.016049099969678,,99,Yes,0.08,1,41,2.7993822999997064,2.888178799999878,2.8,Early,508.5532284667172,508.641989500029,Normal,2024.2.4,C:\Experiments\tid_psam\psam\data\BIDS\stimuli\sub-99\sub-99_normal_probe.wav,sub-99,,505.76796150009613,508.76994590007234,Passive,22,505.76796150009613,510.2676394000882,0.001253599999472499,0.9974890999728814,84,0,503.8347782000201,84,505.75506580004003,510.2868719000835,C:\Experiments\tid_psam\psam\experiment_script\..\data\BIDS\sub-99\beh\sub-99_tid_psam_main_experiment_2025-03-24_12h13.39.302_mic_recorded\recording_mic_2025-03-24_12h22.13.585.wav,84,84,0,84,,,,,
510.2872801000485,512.153284400003,3.0331073999404907,3.014239199925214,,512.1715483000735,516.7194804000901,2025-03-24_12h13.39.302,tid_psam_main_experiment,2025-03-24 12h13.43.426465 +0100,510.7698451000033,0.016034699976444244,0.5326130000175908,60.01197838428649,3.014239199925214,4.016442099935375,,,,,,,,C:\Experiments\tid_psam\psam\experiment_script\..\data\BIDS\sub-99\beh\sub-99_tid_psam_main_experiment_2025-03-24_12h13.39.302_mic_recorded\recording_mic_2025-03-24_12h22.19.999.wav,2.5164568999316543,4.032990699983202,,99,No,0,0,99,9.029998909682035e-05,9.029998909682035e-05,0,None,512.1697328667544,512.1715483000735,None,2024.2.4,None,sub-99,,512.1715483000735,515.1863692000043,Passive,22,512.1715483000735,516.6863712000195,9.029998909682035e-05,1.014396799961105,85,0,510.3031095000915,85,512.1533602999989,516.7030316001037,C:\Experiments\tid_psam\psam\experiment_script\..\data\BIDS\sub-99\beh\sub-99_tid_psam_main_experiment_2025-03-24_12h13.39.302_mic_recorded\recording_mic_2025-03-24_12h22.19.999.wav,85,85,0,85,,,,,
516.7034576000879,518.2174993000226,3.018495799973607,3.001791900023818,,518.2339611999923,522.7690627000993,2025-03-24_12h13.39.302,tid_psam_main_experiment,2025-03-24 12h13.43.426465 +0100,517.1674275000114,-0.00036860001273453236,0.49951669992879033,60.01197838428649,3.001791900023818,4.016231899964623,,,,,,,,C:\Experiments\tid_psam\psam\experiment_script\..\data\BIDS\sub-99\beh\sub-99_tid_psam_main_experiment_2025-03-24_12h13.39.302_mic_recorded\recording_mic_2025-03-24_12h22.26.048.wav,2.4997454999247566,3.999531799927354,,99,Yes,0.08,1,43,2.899514599936083,2.9944622999755666,2.9,Late,521.1191934666751,521.2119475000072,Normal,2024.2.4,C:\Experiments\tid_psam\psam\data\BIDS\stimuli\sub-99\sub-99_normal_probe.wav,sub-99,,518.2339611999923,521.2359694000334,Passive,22,518.2339611999923,522.7357609000755,0.0003179999766871333,1.0019500999478623,86,0,516.7194804000901,86,518.2178079000441,522.7525894000428,C:\Experiments\tid_psam\psam\experiment_script\..\data\BIDS\sub-99\beh\sub-99_tid_psam_main_experiment_2025-03-24_12h13.39.302_mic_recorded\recording_mic_2025-03-24_12h22.26.048.wav,86,86,0,86,,,,,
522.7530154000269,523.8026366000995,3.0162556000286713,3.0162556000286713,,523.8191574000521,528.3354930001078,2025-03-24_12h13.39.302,tid_psam_main_experiment,2025-03-24 12h13.43.426465 +0100,523.2191049000248,0.0016199999954551458,0.5162768999580294,60.01197838428649,2.999769699992612,3.9998192000202835,,,,,,,,C:\Experiments\tid_psam\psam\experiment_script\..\data\BIDS\sub-99\beh\sub-99_tid_psam_main_experiment_2025-03-24_12h13.39.302_mic_recorded\recording_mic_2025-03-24_12h22.31.612.wav,2.5163269999902695,4.014176700031385,,99,No,0,0,99,0.0009964000200852752,0.0009964000200852752,0,None,523.819181066767,523.8191574000521,None,2024.2.4,None,sub-99,,523.8191574000521,526.8188657000428,Active,21,523.8191574000521,528.3190610000165,0.0009964000200852752,0.9999077999964356,87,0,522.7690627000993,87,523.8036220000358,528.3193279000698,C:\Experiments\tid_psam\psam\experiment_script\..\data\BIDS\sub-99\beh\sub-99_tid_psam_main_experiment_2025-03-24_12h13.39.302_mic_recorded\recording_mic_2025-03-24_12h22.31.612.wav,87,87,0,87,,,,,
528.3197485000128,529.4168428000994,3.0185053000459448,3.0185053000459448,,529.4355446000118,533.9663629001006,2025-03-24_12h13.39.302,tid_psam_main_experiment,2025-03-24 12h13.43.426465 +0100,528.8166215000674,0.014003199990838766,0.5307277999818325,60.01197838428649,2.999533800058998,4.001714900019579,,,,,,,,C:\Experiments\tid_psam\psam\experiment_script\..\data\BIDS\sub-99\beh\sub-99_tid_psam_main_experiment_2025-03-24_12h13.39.302_mic_recorded\recording_mic_2025-03-24_12h22.37.242.wav,2.5017285000067204,4.001714900019579,,99,Yes,0.08,1,33,2.9018986000446603,2.98624270001892,2.9,Late,532.316590066712,532.4030719000148,Normal,2024.2.4,C:\Experiments\tid_psam\psam\data\BIDS\stimuli\sub-99\sub-99_normal_probe.wav,sub-99,,529.4355446000118,532.4520026000682,Active,21,529.4355446000118,533.9497169000097,0.0002994000678882003,1.0162972999969497,88,0,528.3354930001078,88,529.4171324000927,533.950030200067,C:\Experiments\tid_psam\psam\experiment_script\..\data\BIDS\sub-99\beh\sub-99_tid_psam_main_experiment_2025-03-24_12h13.39.302_mic_recorded\recording_mic_2025-03-24_12h22.37.242.wav,88,88,0,88,,,,,
533.9504443000769,535.5185820000479,3.016303400043398,3.016303400043398,,535.5330599000445,540.0515349000925,2025-03-24_12h13.39.302,tid_psam_main_experiment,2025-03-24 12h13.43.426465 +0100,534.416243600077,-0.000584400026127696,0.5015316000208259,60.01197838428649,2.9996954000089318,4.014219700009562,,,,,,,,C:\Experiments\tid_psam\psam\experiment_script\..\data\BIDS\sub-99\beh\sub-99_tid_psam_main_experiment_2025-03-24_12h13.39.302_mic_recorded\recording_mic_2025-03-24_12h22.43.325.wav,2.4997154000448063,3.9975377999944612,,99,No,0,0,99,8.949998300522566e-05,8.949998300522566e-05,0,None,535.5350339667095,535.5330599000445,None,2024.2.4,None,sub-99,,535.5330599000445,538.5348670000676,Active,21,535.5330599000445,540.034884700086,8.949998300522566e-05,0.9999036999652162,89,0,533.9663629001006,89,535.5186579000438,540.0352061000885,C:\Experiments\tid_psam\psam\experiment_script\..\data\BIDS\sub-99\beh\sub-99_tid_psam_main_experiment_2025-03-24_12h13.39.302_mic_recorded\recording_mic_2025-03-24_12h22.43.325.wav,89,89,0,89,,,,,
