ISI.started,ISI.stopped,aa_green_onset,aa_test_onset,conditions,cue_stim.started,cue_stim.stopped,date,expName,expStart,fixation_cross_ISI.started,frameRate,instruction_keys.duration,instruction_keys.keys,instruction_keys.rt,instruction_keys.started,instructions.started,instructions.stopped,instructions_message.started,mic.clip,mic.started,mic.stopped,notes,participant,probe,probe_duration,probe_intensity,probe_marker.started,probe_marker.stopped,probe_onset,probe_onset_cat,probe_stim.started,probe_stim.stopped,probe_type,psychopyVersion,stim_file,subj,subject_id,target_stim.started,target_stim.stopped,task,task_msg.started,task_msg.stopped,thisN,thisRepN,thisRow.t,thisTrialN,trial.started,trial.stopped,trials.mic.clip,trials.thisIndex,trials.thisN,trials.thisRepN,trials.thisTrialN,welcome.started,welcome.stopped,welcome_message.started,
,,,,C:\Experiments\tid_psam\psam\data\BIDS\stimuli\sub-99\sub-99_conditions.xlsx,,,2025-03-20_13h56.40.550,tid_psam_main_experiment,2025-03-20 13h56.44.566219 +0100,,60.00582055302952,,,,,,,,,,,,99,,,,,,,,,,,2024.2.4,,,sub-99,,,,,,,,,,,,,,,,,0.0029480999801307917,1.5058426999603398,0.008316699997521937,
,,,,,,,2025-03-20_13h56.40.550,tid_psam_main_experiment,2025-03-20 13h56.44.566219 +0100,,60.00582055302952,None,space,0.3086321000009775,1.5223280999925919,1.5058596999733709,1.8384469999582507,1.5223280999925919,,,,,99,,,,,,,,,,,2024.2.4,,,,,,,,,,,,,,,,,,,,,,,
1.9480068999691866,3.0724213999928907,3.0309771000174806,3.014306300028693,,3.0935904000070877,7.636559500009753,2025-03-20_13h56.40.550,tid_psam_main_experiment,2025-03-20 13h56.44.566219 +0100,1.9527182999881916,60.00582055302952,,,,,,,,C:\Experiments\tid_psam\psam\experiment_script\..\data\BIDS\sub-99\beh\sub-99_tid_psam_main_experiment_2025-03-20_13h56.40.550_mic_recorded\recording_mic_2025-03-20_13h56.52.185.wav,2.5142727000056766,4.014176799973939,,99,No,0,0,0.003235700016375631,0.003235700016375631,0,None,3.088952966678577,3.0935904000070877,None,2024.2.4,None,sub-99,,3.0935904000070877,6.103357299987692,Passive,3.0935904000070877,7.603304899996147,0,0,1.9527182999881916,0,3.075642100011464,7.622165300010238,C:\Experiments\tid_psam\psam\experiment_script\..\data\BIDS\sub-99\beh\sub-99_tid_psam_main_experiment_2025-03-20_13h56.40.550_mic_recorded\recording_mic_2025-03-20_13h56.52.185.wav,0,0,0,0,,,,
7.62263359996723,8.688844699994661,3.016571499989368,3.016571499989368,,8.706808499991894,13.236304499965627,2025-03-20_13h56.40.550,tid_psam_main_experiment,2025-03-20 13h56.44.566219 +0100,8.0887037999928,60.00582055302952,,,,,,,,C:\Experiments\tid_psam\psam\experiment_script\..\data\BIDS\sub-99\beh\sub-99_tid_psam_main_experiment_2025-03-20_13h56.40.550_mic_recorded\recording_mic_2025-03-20_13h56.57.784.wav,2.514267899969127,4.016220399993472,,99,No,0,0,0.0017591000068932772,0.0017591000068932772,0,None,8.705311866655636,8.706808499991894,None,2024.2.4,None,sub-99,,8.706808499991894,11.721798599988688,Active,8.706808499991894,13.219715100014582,1,0,7.636559500009753,1,8.690593099978287,13.219987099990249,C:\Experiments\tid_psam\psam\experiment_script\..\data\BIDS\sub-99\beh\sub-99_tid_psam_main_experiment_2025-03-20_13h56.40.550_mic_recorded\recording_mic_2025-03-20_13h56.57.784.wav,1,1,0,1,,,,
13.22041770000942,14.336495399998967,3.032853199983947,3.0017412999877706,,14.352898399985861,18.902626700000837,2025-03-20_13h56.40.550,tid_psam_main_experiment,2025-03-20 13h56.44.566219 +0100,13.702968399971724,60.00582055302952,,,,,,,,C:\Experiments\tid_psam\psam\experiment_script\..\data\BIDS\sub-99\beh\sub-99_tid_psam_main_experiment_2025-03-20_13h56.40.550_mic_recorded\recording_mic_2025-03-20_13h57.03.451.wav,2.5014981999993324,4.018235500028823,,99,Yes,0.08,1,2.8016097000217997,2.8890720999916084,2.8,Early,17.13608346664502,17.225559399987105,Pitch,2024.2.4,C:\Experiments\tid_psam\psam\data\BIDS\stimuli\sub-99\sub-99_pitch_probe.wav,sub-99,,14.352898399985861,17.35267469997052,Active,14.352898399985861,18.85257270000875,2,0,13.236304499965627,2,14.337298900005408,18.88838009996107,C:\Experiments\tid_psam\psam\experiment_script\..\data\BIDS\sub-99\beh\sub-99_tid_psam_main_experiment_2025-03-20_13h56.40.550_mic_recorded\recording_mic_2025-03-20_13h57.03.451.wav,2,2,0,2,,,,
18.888831299962476,20.06941120000556,3.016266499995254,3.0017273999983445,,20.08802269998705,24.618906799994875,2025-03-20_13h56.40.550,tid_psam_main_experiment,2025-03-20 13h56.44.566219 +0100,19.33579009998357,60.00582055302952,,,,,,,,C:\Experiments\tid_psam\psam\experiment_script\..\data\BIDS\sub-99\beh\sub-99_tid_psam_main_experiment_2025-03-20_13h56.40.550_mic_recorded\recording_mic_2025-03-20_13h57.09.168.wav,2.499630599981174,4.001738699967973,,99,No,0,0,0.0009928999934345484,0.0009928999934345484,0,None,20.085895266678804,20.08802269998705,None,2024.2.4,None,sub-99,,20.08802269998705,23.085662700003013,Passive,20.08802269998705,24.604325199965388,3,0,18.902626700000837,3,20.07039219996659,24.604562399967108,C:\Experiments\tid_psam\psam\experiment_script\..\data\BIDS\sub-99\beh\sub-99_tid_psam_main_experiment_2025-03-20_13h56.40.550_mic_recorded\recording_mic_2025-03-20_13h57.09.168.wav,3,3,0,3,,,,
24.60498030000599,25.6024119000067,3.0330075999954715,3.018447800015565,,25.61875169997802,30.168570299982093,2025-03-20_13h56.40.550,tid_psam_main_experiment,2025-03-20 13h56.44.566219 +0100,25.07098199997563,60.00582055302952,,,,,,,,C:\Experiments\tid_psam\psam\experiment_script\..\data\BIDS\sub-99\beh\sub-99_tid_psam_main_experiment_2025-03-20_13h56.40.550_mic_recorded\recording_mic_2025-03-20_13h57.14.715.wav,2.499673400016036,3.999648500001058,,99,No,0,0,0.0010082999942824244,0.0010082999942824244,0,None,25.61882546666699,25.61875169997802,None,2024.2.4,None,sub-99,,25.61875169997802,28.62084240000695,Active,25.61875169997802,30.11867269995855,4,0,24.618906799994875,4,25.603407399961725,30.15216529997997,C:\Experiments\tid_psam\psam\experiment_script\..\data\BIDS\sub-99\beh\sub-99_tid_psam_main_experiment_2025-03-20_13h56.40.550_mic_recorded\recording_mic_2025-03-20_13h57.14.715.wav,4,4,0,4,,,,
30.15265979996184,31.102112199994735,3.0351285000215285,3.016293700027745,,31.118607399985194,35.66830309998477,2025-03-20_13h56.40.550,tid_psam_main_experiment,2025-03-20 13h56.44.566219 +0100,30.60198009997839,60.00582055302952,,,,,,,,C:\Experiments\tid_psam\psam\experiment_script\..\data\BIDS\sub-99\beh\sub-99_tid_psam_main_experiment_2025-03-20_13h56.40.550_mic_recorded\recording_mic_2025-03-20_13h57.20.215.wav,2.4996370999724604,3.9996140000293963,,99,Yes,0.08,1,2.899619599978905,2.982857300026808,2.9,Late,34.003850466633835,34.08495479996782,Normal,2024.2.4,C:\Experiments\tid_psam\psam\data\BIDS\stimuli\sub-99\sub-99_normal_probe.wav,sub-99,,31.118607399985194,34.11836580000818,Passive,31.118607399985194,35.62044299999252,5,0,30.168570299982093,5,31.103386599977966,35.651758199965116,C:\Experiments\tid_psam\psam\experiment_script\..\data\BIDS\sub-99\beh\sub-99_tid_psam_main_experiment_2025-03-20_13h56.40.550_mic_recorded\recording_mic_2025-03-20_13h57.20.215.wav,5,5,0,5,,,,
35.652202099969145,37.520531599991955,3.0308345000375994,3.014226100000087,,37.53483580000466,42.08443899999838,2025-03-20_13h56.40.550,tid_psam_main_experiment,2025-03-20 13h56.44.566219 +0100,36.10163059999468,60.00582055302952,,,,,,,,C:\Experiments\tid_psam\psam\experiment_script\..\data\BIDS\sub-99\beh\sub-99_tid_psam_main_experiment_2025-03-20_13h56.40.550_mic_recorded\recording_mic_2025-03-20_13h57.26.632.wav,2.5141769000329077,4.0140561000443995,,99,Yes,0.08,1,2.8162974000442773,2.8973819999955595,2.8,Early,40.33468746667883,40.417907600000035,Pitch,2024.2.4,C:\Experiments\tid_psam\psam\data\BIDS\stimuli\sub-99\sub-99_pitch_probe.wav,sub-99,,37.53483580000466,40.53474649996497,Passive,37.53483580000466,42.03450279997196,6,0,35.66830309998477,6,37.52099339995766,42.068103300000075,C:\Experiments\tid_psam\psam\experiment_script\..\data\BIDS\sub-99\beh\sub-99_tid_psam_main_experiment_2025-03-20_13h56.40.550_mic_recorded\recording_mic_2025-03-20_13h57.26.632.wav,6,6,0,6,,,,
42.06851800001459,43.15132179995999,3.0185764000052586,3.0185764000052586,,43.16780609998386,47.68431649997365,2025-03-20_13h56.40.550,tid_psam_main_experiment,2025-03-20 13h56.44.566219 +0100,42.51789739995729,60.00582055302952,,,,,,,,C:\Experiments\tid_psam\psam\experiment_script\..\data\BIDS\sub-99\beh\sub-99_tid_psam_main_experiment_2025-03-20_13h56.40.550_mic_recorded\recording_mic_2025-03-20_13h57.32.233.wav,2.5017950999899767,4.016295899986289,,99,Yes,0.08,1,2.7997172999894246,2.8975234999670647,2.8,Early,45.953201066648276,46.04883109999355,Normal,2024.2.4,C:\Experiments\tid_psam\psam\data\BIDS\stimuli\sub-99\sub-99_normal_probe.wav,sub-99,,43.16780609998386,46.16988150001271,Active,43.16780609998386,47.669877199979965,7,0,42.08443899999838,7,43.15258029999677,47.67014299996663,C:\Experiments\tid_psam\psam\experiment_script\..\data\BIDS\sub-99\beh\sub-99_tid_psam_main_experiment_2025-03-20_13h56.40.550_mic_recorded\recording_mic_2025-03-20_13h57.32.233.wav,7,7,0,7,,,,
47.670757699990645,48.90361859998666,3.016077700012829,3.016077700012829,,48.91944329999387,53.45055820001289,2025-03-20_13h56.40.550,tid_psam_main_experiment,2025-03-20 13h56.44.566219 +0100,48.15314909996232,60.00582055302952,,,,,,,,C:\Experiments\tid_psam\psam\experiment_script\..\data\BIDS\sub-99\beh\sub-99_tid_psam_main_experiment_2025-03-20_13h56.40.550_mic_recorded\recording_mic_2025-03-20_13h57.37.997.wav,2.5159582000342198,4.015866200032178,,99,No,0,0,0.0010601000394672155,0.0010601000394672155,0,None,48.920004366668095,48.91944329999387,None,2024.2.4,None,sub-99,,48.91944329999387,51.936260399990715,Passive,48.91944329999387,53.419530000013765,8,0,47.68431649997365,8,48.90467129996978,53.434270399971865,C:\Experiments\tid_psam\psam\experiment_script\..\data\BIDS\sub-99\beh\sub-99_tid_psam_main_experiment_2025-03-20_13h56.40.550_mic_recorded\recording_mic_2025-03-20_13h57.37.997.wav,8,8,0,8,,,,
53.43480429996271,55.21730489999754,3.0351696999859996,3.0185137999942526,,55.23386689997278,59.783447599969804,2025-03-20_13h56.40.550,tid_psam_main_experiment,2025-03-20 13h56.44.566219 +0100,53.917356899997685,60.00582055302952,,,,,,,,C:\Experiments\tid_psam\psam\experiment_script\..\data\BIDS\sub-99\beh\sub-99_tid_psam_main_experiment_2025-03-20_13h56.40.550_mic_recorded\recording_mic_2025-03-20_13h57.44.330.wav,2.499731599993538,4.001722500019241,,99,No,0,0,0.0009628999978303909,0.0009628999978303909,0,None,55.233794166652174,55.23386689997278,None,2024.2.4,None,sub-99,,55.23386689997278,58.23579870001413,Active,55.23386689997278,59.73355179995997,9,0,53.45055820001289,9,55.21825609996449,59.76712609996321,C:\Experiments\tid_psam\psam\experiment_script\..\data\BIDS\sub-99\beh\sub-99_tid_psam_main_experiment_2025-03-20_13h56.40.550_mic_recorded\recording_mic_2025-03-20_13h57.44.330.wav,9,9,0,9,,,,
59.767558499996085,61.2857922000112,3.0328941000043415,3.002589799987618,,61.30022909998661,65.83320809999714,2025-03-20_13h56.40.550,tid_psam_main_experiment,2025-03-20 13h56.44.566219 +0100,60.219044199970085,60.00582055302952,,,,,,,,C:\Experiments\tid_psam\psam\experiment_script\..\data\BIDS\sub-99\beh\sub-99_tid_psam_main_experiment_2025-03-20_13h56.40.550_mic_recorded\recording_mic_2025-03-20_13h57.50.382.wav,2.514123599976301,4.014128299953882,,99,Yes,0.08,1,2.916397499968298,3.002589799987618,2.9,Late,64.19997136667759,64.28837009996641,Pitch,2024.2.4,C:\Experiments\tid_psam\psam\data\BIDS\stimuli\sub-99\sub-99_pitch_probe.wav,sub-99,,61.30022909998661,64.2999628999969,Passive,61.30022909998661,65.80197589995805,10,0,59.783447599969804,10,61.287049199978355,65.81902389996685,C:\Experiments\tid_psam\psam\experiment_script\..\data\BIDS\sub-99\beh\sub-99_tid_psam_main_experiment_2025-03-20_13h56.40.550_mic_recorded\recording_mic_2025-03-20_13h57.50.382.wav,10,10,0,10,,,,
65.81945219996851,66.86859389999881,3.033284500008449,3.0144431000226177,,66.88612569996621,71.43297449999955,2025-03-20_13h56.40.550,tid_psam_main_experiment,2025-03-20 13h56.44.566219 +0100,66.30193129996769,60.00582055302952,,,,,,,,C:\Experiments\tid_psam\psam\experiment_script\..\data\BIDS\sub-99\beh\sub-99_tid_psam_main_experiment_2025-03-20_13h56.40.550_mic_recorded\recording_mic_2025-03-20_13h57.55.980.wav,2.4998213999788277,4.016517899988685,,99,No,0,0,5.0099974032491446e-05,5.0099974032491446e-05,0,None,66.8851435666477,66.88612569996621,None,2024.2.4,None,sub-99,,66.88612569996621,69.90185999998357,Passive,66.88612569996621,71.39962109999033,11,0,65.83320809999714,11,66.86863769998308,71.41645739995874,C:\Experiments\tid_psam\psam\experiment_script\..\data\BIDS\sub-99\beh\sub-99_tid_psam_main_experiment_2025-03-20_13h56.40.550_mic_recorded\recording_mic_2025-03-20_13h57.55.980.wav,11,11,0,11,,,,
71.41701450000983,72.70188319997396,3.0164489000453614,3.0164489000453614,,72.71621579997009,77.24927069997648,2025-03-20_13h56.40.550,tid_psam_main_experiment,2025-03-20 13h56.44.566219 +0100,71.86624920001486,60.00582055302952,,,,,,,,C:\Experiments\tid_psam\psam\experiment_script\..\data\BIDS\sub-99\beh\sub-99_tid_psam_main_experiment_2025-03-20_13h56.40.550_mic_recorded\recording_mic_2025-03-20_13h58.01.796.wav,2.5141894000116736,4.032968400046229,,99,No,0,0,0.0010926000541076064,0.0010926000541076064,0,None,72.71833586664094,72.71621579997009,None,2024.2.4,None,sub-99,,72.71621579997009,75.71832079999149,Active,72.71621579997009,77.21599539997987,12,0,71.43297449999955,12,72.70297220000066,77.23287559999153,C:\Experiments\tid_psam\psam\experiment_script\..\data\BIDS\sub-99\beh\sub-99_tid_psam_main_experiment_2025-03-20_13h56.40.550_mic_recorded\recording_mic_2025-03-20_13h58.01.796.wav,12,12,0,12,,,,
77.23347889998695,78.2992500999826,3.0185006000101566,3.001851800014265,,78.31793879996985,82.8487798999995,2025-03-20_13h56.40.550,tid_psam_main_experiment,2025-03-20 13h56.44.566219 +0100,77.71591389999958,60.00582055302952,,,,,,,,C:\Experiments\tid_psam\psam\experiment_script\..\data\BIDS\sub-99\beh\sub-99_tid_psam_main_experiment_2025-03-20_13h56.40.550_mic_recorded\recording_mic_2025-03-20_13h58.07.395.wav,2.4997357000247575,4.001857800001744,,99,Yes,0.08,1,2.899640100018587,2.983081799990032,2.9,Late,81.19896216667645,81.28231829998549,Normal,2024.2.4,C:\Experiments\tid_psam\psam\data\BIDS\stimuli\sub-99\sub-99_normal_probe.wav,sub-99,,78.31793879996985,81.31773289997363,Active,78.31793879996985,82.81552929995814,13,0,77.24927069997648,13,78.29956929996843,82.83251879998716,C:\Experiments\tid_psam\psam\experiment_script\..\data\BIDS\sub-99\beh\sub-99_tid_psam_main_experiment_2025-03-20_13h56.40.550_mic_recorded\recording_mic_2025-03-20_13h58.07.395.wav,13,13,0,13,,,,
82.83294240001123,84.50106370000867,3.0329195999656804,3.01414579997072,,84.51551369996741,89.06514039996546,2025-03-20_13h56.40.550,tid_psam_main_experiment,2025-03-20 13h56.44.566219 +0100,83.29880059999414,60.00582055302952,,,,,,,,C:\Experiments\tid_psam\psam\experiment_script\..\data\BIDS\sub-99\beh\sub-99_tid_psam_main_experiment_2025-03-20_13h56.40.550_mic_recorded\recording_mic_2025-03-20_13h58.13.612.wav,2.5164170999778435,4.014156999997795,,99,Yes,0.08,1,2.8163065999979153,2.89754959999118,2.8,Early,87.30081386666667,87.38197519996902,Normal,2024.2.4,C:\Experiments\tid_psam\psam\data\BIDS\stimuli\sub-99\sub-99_normal_probe.wav,sub-99,,84.51551369996741,87.5151928999694,Passive,84.51551369996741,89.01737309998134,14,0,82.8487798999995,14,84.50228969997261,89.04877150000539,C:\Experiments\tid_psam\psam\experiment_script\..\data\BIDS\sub-99\beh\sub-99_tid_psam_main_experiment_2025-03-20_13h56.40.550_mic_recorded\recording_mic_2025-03-20_13h58.13.612.wav,14,14,0,14,,,,
89.04918500001077,90.71531659999164,3.018634899985045,3.018634899985045,,90.73192009999184,95.26706689997809,2025-03-20_13h56.40.550,tid_psam_main_experiment,2025-03-20 13h56.44.566219 +0100,89.51736990001518,60.00582055302952,,,,,,,,C:\Experiments\tid_psam\psam\experiment_script\..\data\BIDS\sub-99\beh\sub-99_tid_psam_main_experiment_2025-03-20_13h56.40.550_mic_recorded\recording_mic_2025-03-20_13h58.19.813.wav,2.499669899989385,4.001791599963326,,99,Yes,0.08,1,2.899648899969179,2.9829785999609157,2.9,Late,93.61721706664345,93.69828379998216,Pitch,2024.2.4,C:\Experiments\tid_psam\psam\data\BIDS\stimuli\sub-99\sub-99_pitch_probe.wav,sub-99,,90.73192009999184,93.73393699998269,Active,90.73192009999184,95.23166879999917,15,0,89.06514039996546,15,90.71655859996099,95.2507203000132,C:\Experiments\tid_psam\psam\experiment_script\..\data\BIDS\sub-99\beh\sub-99_tid_psam_main_experiment_2025-03-20_13h56.40.550_mic_recorded\recording_mic_2025-03-20_13h58.19.813.wav,15,15,0,15,,,,
95.25115610001376,96.78160609997576,3.0330217000446282,3.0164623000309803,,96.79811979999067,101.33120159996906,2025-03-20_13h56.40.550,tid_psam_main_experiment,2025-03-20 13h56.44.566219 +0100,95.71484649996273,60.00582055302952,,,,,,,,C:\Experiments\tid_psam\psam\experiment_script\..\data\BIDS\sub-99\beh\sub-99_tid_psam_main_experiment_2025-03-20_13h56.40.550_mic_recorded\recording_mic_2025-03-20_13h58.25.880.wav,2.4997333000064828,4.018401800014544,,99,Yes,0.08,1,2.79960279999068,2.8865379000199027,2.8,Early,99.5834823666412,99.66813110001385,Normal,2024.2.4,C:\Experiments\tid_psam\psam\data\BIDS\stimuli\sub-99\sub-99_normal_probe.wav,sub-99,,96.79811979999067,99.79803909995826,Passive,96.79811979999067,101.29783389996737,16,0,95.26706689997809,16,96.78286819998175,101.31684609997319,C:\Experiments\tid_psam\psam\experiment_script\..\data\BIDS\sub-99\beh\sub-99_tid_psam_main_experiment_2025-03-20_13h56.40.550_mic_recorded\recording_mic_2025-03-20_13h58.25.880.wav,16,16,0,16,,,,
101.317273499968,103.18353340000613,3.0305527000455186,3.013944000005722,,103.19980070000747,107.73070429998916,2025-03-20_13h56.40.550,tid_psam_main_experiment,2025-03-20 13h56.44.566219 +0100,101.78123949997826,60.00582055302952,,,,,,,,C:\Experiments\tid_psam\psam\experiment_script\..\data\BIDS\sub-99\beh\sub-99_tid_psam_main_experiment_2025-03-20_13h56.40.550_mic_recorded\recording_mic_2025-03-20_13h58.32.280.wav,2.515950500033796,4.032675900030881,,99,Yes,0.08,1,2.8139500000397675,2.9028996000415646,2.8,Early,105.99742366664965,106.08642219996545,Pitch,2024.2.4,C:\Experiments\tid_psam\psam\data\BIDS\stimuli\sub-99\sub-99_pitch_probe.wav,sub-99,,103.19980070000747,106.21406719996594,Passive,103.19980070000747,107.71638779999921,17,0,101.33120159996906,17,103.18385390000185,107.71673719998216,C:\Experiments\tid_psam\psam\experiment_script\..\data\BIDS\sub-99\beh\sub-99_tid_psam_main_experiment_2025-03-20_13h56.40.550_mic_recorded\recording_mic_2025-03-20_13h58.32.280.wav,17,17,0,17,,,,
107.71714289998636,108.79750559997046,3.0352255000034347,3.0163164000259712,,108.81624189997092,113.36600969999563,2025-03-20_13h56.40.550,tid_psam_main_experiment,2025-03-20 13h56.44.566219 +0100,108.18288390000816,60.00582055302952,,,,,,,,C:\Experiments\tid_psam\psam\experiment_script\..\data\BIDS\sub-99\beh\sub-99_tid_psam_main_experiment_2025-03-20_13h56.40.550_mic_recorded\recording_mic_2025-03-20_13h58.37.913.wav,2.501925599994138,4.001828400010709,,99,No,0,0,5.43000060133636e-05,5.43000060133636e-05,0,None,108.81397096667594,108.81624189997092,None,2024.2.4,None,sub-99,,108.81624189997092,111.83271270000841,Passive,108.81624189997092,113.31378019996919,18,0,107.73070429998916,18,108.79755459999433,113.34963660000358,C:\Experiments\tid_psam\psam\experiment_script\..\data\BIDS\sub-99\beh\sub-99_tid_psam_main_experiment_2025-03-20_13h56.40.550_mic_recorded\recording_mic_2025-03-20_13h58.37.913.wav,18,18,0,18,,,,
113.35005969996564,114.93268369999714,3.0306914999964647,3.014084000024013,,114.94716280000284,119.48004940000828,2025-03-20_13h56.40.550,tid_psam_main_experiment,2025-03-20 13h56.44.566219 +0100,113.79931049997685,60.00582055302952,,,,,,,,C:\Experiments\tid_psam\psam\experiment_script\..\data\BIDS\sub-99\beh\sub-99_tid_psam_main_experiment_2025-03-20_13h56.40.550_mic_recorded\recording_mic_2025-03-20_13h58.44.029.wav,2.49957089999225,3.9995902000227943,,99,No,0,0,5.2099989261478186e-05,5.2099989261478186e-05,0,None,114.94919286662868,114.94716280000284,None,2024.2.4,None,sub-99,,114.94716280000284,117.94672730000457,Passive,114.94716280000284,119.44892180000897,19,0,113.36600969999563,19,114.93272949999664,119.46583020000253,C:\Experiments\tid_psam\psam\experiment_script\..\data\BIDS\sub-99\beh\sub-99_tid_psam_main_experiment_2025-03-20_13h56.40.550_mic_recorded\recording_mic_2025-03-20_13h58.44.029.wav,19,19,0,19,,,,
119.46627239999361,120.449167499959,3.0160948000266217,3.0160948000266217,,120.46319519996177,124.99645139998756,2025-03-20_13h56.40.550,tid_psam_main_experiment,2025-03-20 13h56.44.566219 +0100,119.94662830000743,60.00582055302952,,,,,,,,C:\Experiments\tid_psam\psam\experiment_script\..\data\BIDS\sub-99\beh\sub-99_tid_psam_main_experiment_2025-03-20_13h56.40.550_mic_recorded\recording_mic_2025-03-20_13h58.49.543.wav,2.4994512000121176,3.9973792000091635,,99,Yes,0.08,1,2.9140421000192873,2.997840400028508,2.9,Late,123.36311726662485,123.44699600001331,Pitch,2024.2.4,C:\Experiments\tid_psam\psam\data\BIDS\stimuli\sub-99\sub-99_pitch_probe.wav,sub-99,,120.46319519996177,123.46524210000644,Passive,120.46319519996177,124.96300009998959,20,0,119.48004940000828,20,120.44950990000507,124.98005000001285,C:\Experiments\tid_psam\psam\experiment_script\..\data\BIDS\sub-99\beh\sub-99_tid_psam_main_experiment_2025-03-20_13h56.40.550_mic_recorded\recording_mic_2025-03-20_13h58.49.543.wav,20,20,0,20,,,,
124.98047409998253,126.03199599997606,3.0329483000095934,3.01632580003934,,126.0465049999766,130.5960642999853,2025-03-20_13h56.40.550,tid_psam_main_experiment,2025-03-20 13h56.44.566219 +0100,125.46512879995862,60.00582055302952,,,,,,,,C:\Experiments\tid_psam\psam\experiment_script\..\data\BIDS\sub-99\beh\sub-99_tid_psam_main_experiment_2025-03-20_13h56.40.550_mic_recorded\recording_mic_2025-03-20_13h58.55.143.wav,2.514233299996704,4.016295900044497,,99,No,0,0,0.0009515000274404883,0.0009515000274404883,0,None,126.04854986665693,126.0465049999766,None,2024.2.4,None,sub-99,,126.0465049999766,129.0482892,Active,126.0465049999766,130.54817959998036,21,0,124.99645139998756,21,126.03293749998556,130.57979029999115,C:\Experiments\tid_psam\psam\experiment_script\..\data\BIDS\sub-99\beh\sub-99_tid_psam_main_experiment_2025-03-20_13h56.40.550_mic_recorded\recording_mic_2025-03-20_13h58.55.143.wav,21,21,0,21,,,,
130.5801969000022,131.67939259996638,3.0330625000060536,3.001893700042274,,131.69803540001158,136.24576729995897,2025-03-20_13h56.40.550,tid_psam_main_experiment,2025-03-20 13h56.44.566219 +0100,131.04819120001048,60.00582055302952,,,,,,,,C:\Experiments\tid_psam\psam\experiment_script\..\data\BIDS\sub-99\beh\sub-99_tid_psam_main_experiment_2025-03-20_13h56.40.550_mic_recorded\recording_mic_2025-03-20_13h59.00.795.wav,2.499758300022222,3.999729200033471,,99,Yes,0.08,1,2.7997089000418782,2.886450300051365,2.8,Early,134.4790560666627,134.56582879996859,Normal,2024.2.4,C:\Experiments\tid_psam\psam\data\BIDS\stimuli\sub-99\sub-99_normal_probe.wav,sub-99,,131.69803540001158,134.6957637000014,Active,131.69803540001158,136.19564399996307,22,0,130.5960642999853,22,131.67968969995854,136.2314513999736,C:\Experiments\tid_psam\psam\experiment_script\..\data\BIDS\sub-99\beh\sub-99_tid_psam_main_experiment_2025-03-20_13h56.40.550_mic_recorded\recording_mic_2025-03-20_13h59.00.795.wav,22,22,0,22,,,,
136.2318730999832,137.42904289998114,3.018771300034132,3.018771300034132,,137.44567099999404,141.97869809996337,2025-03-20_13h56.40.550,tid_psam_main_experiment,2025-03-20 13h56.44.566219 +0100,136.67893870000262,60.00582055302952,,,,,,,,C:\Experiments\tid_psam\psam\experiment_script\..\data\BIDS\sub-99\beh\sub-99_tid_psam_main_experiment_2025-03-20_13h56.40.550_mic_recorded\recording_mic_2025-03-20_13h59.06.526.wav,2.4997397999977693,4.016410000040196,,99,No,0,0,5.1799986977130175e-05,5.1799986977130175e-05,0,None,137.44558216666726,137.44567099999404,None,2024.2.4,None,sub-99,,137.44567099999404,140.447791100014,Active,137.44567099999404,141.94541549996939,23,0,136.24576729995897,23,137.42908809997607,141.96230919996742,C:\Experiments\tid_psam\psam\experiment_script\..\data\BIDS\sub-99\beh\sub-99_tid_psam_main_experiment_2025-03-20_13h56.40.550_mic_recorded\recording_mic_2025-03-20_13h59.06.526.wav,23,23,0,23,,,,
141.9627213999629,143.0144306999864,3.016257899987977,3.016257899987977,,143.0308309000102,147.56402429996524,2025-03-20_13h56.40.550,tid_psam_main_experiment,2025-03-20 13h56.44.566219 +0100,142.43082619999768,60.00582055302952,,,,,,,,C:\Experiments\tid_psam\psam\experiment_script\..\data\BIDS\sub-99\beh\sub-99_tid_psam_main_experiment_2025-03-20_13h56.40.550_mic_recorded\recording_mic_2025-03-20_13h59.12.109.wav,2.514095799997449,4.030750399979297,,99,No,0,0,5.630002124235034e-05,5.630002124235034e-05,0,None,143.03086856665712,143.0308309000102,None,2024.2.4,None,sub-99,,143.0308309000102,146.04731840000022,Active,143.0308309000102,147.54497859999537,24,0,141.97869809996337,24,143.01448099996196,147.54537559999153,C:\Experiments\tid_psam\psam\experiment_script\..\data\BIDS\sub-99\beh\sub-99_tid_psam_main_experiment_2025-03-20_13h56.40.550_mic_recorded\recording_mic_2025-03-20_13h59.12.109.wav,24,24,0,24,,,,
147.5458154999651,148.6639717000071,3.0330643999623135,3.0141952999983914,,148.67833169997903,153.22805059998063,2025-03-20_13h56.40.550,tid_psam_main_experiment,2025-03-20 13h56.44.566219 +0100,148.0305138999829,60.00582055302952,,,,,,,,C:\Experiments\tid_psam\psam\experiment_script\..\data\BIDS\sub-99\beh\sub-99_tid_psam_main_experiment_2025-03-20_13h56.40.550_mic_recorded\recording_mic_2025-03-20_13h59.17.777.wav,2.5163064999505877,4.016220199991949,,99,No,0,0,0.0010975999757647514,0.0010975999757647514,0,None,148.68043296668137,148.67833169997903,None,2024.2.4,None,sub-99,,148.67833169997903,151.67815409996547,Passive,148.67833169997903,153.1781014999724,25,0,147.56402429996524,25,148.66505939996568,153.21377719996963,C:\Experiments\tid_psam\psam\experiment_script\..\data\BIDS\sub-99\beh\sub-99_tid_psam_main_experiment_2025-03-20_13h56.40.550_mic_recorded\recording_mic_2025-03-20_13h59.17.777.wav,25,25,0,25,,,,
153.2142096000025,154.62797929998487,3.0329930000007153,3.018457199970726,,154.64449119998608,159.19418980000773,2025-03-20_13h56.40.550,tid_psam_main_experiment,2025-03-20 13h56.44.566219 +0100,153.66135349997785,60.00582055302952,,,,,,,,C:\Experiments\tid_psam\psam\experiment_script\..\data\BIDS\sub-99\beh\sub-99_tid_psam_main_experiment_2025-03-20_13h56.40.550_mic_recorded\recording_mic_2025-03-20_13h59.23.741.wav,2.499757600016892,4.018557299976237,,99,Yes,0.08,1,2.799725299992133,2.889624500006903,2.8,Early,157.42760846665286,157.51759299996775,Pitch,2024.2.4,C:\Experiments\tid_psam\psam\data\BIDS\stimuli\sub-99\sub-99_pitch_probe.wav,sub-99,,154.64449119998608,157.6464191999985,Active,154.64449119998608,159.14422089996515,26,0,153.22805059998063,26,154.62916559999576,159.1777934000129,C:\Experiments\tid_psam\psam\experiment_script\..\data\BIDS\sub-99\beh\sub-99_tid_psam_main_experiment_2025-03-20_13h56.40.550_mic_recorded\recording_mic_2025-03-20_13h59.23.741.wav,26,26,0,26,,,,
159.1782072999631,161.09668509999756,3.0306446999893524,3.0140089000342414,,161.11624790000496,165.64604630001122,2025-03-20_13h56.40.550,tid_psam_main_experiment,2025-03-20 13h56.44.566219 +0100,159.62751319998642,60.00582055302952,,,,,,,,C:\Experiments\tid_psam\psam\experiment_script\..\data\BIDS\sub-99\beh\sub-99_tid_psam_main_experiment_2025-03-20_13h56.40.550_mic_recorded\recording_mic_2025-03-20_13h59.30.193.wav,2.4995319000445306,3.9994849000358954,,99,No,0,0,0.0010540999937802553,0.0010540999937802553,0,None,161.1130139666532,161.11624790000496,None,2024.2.4,None,sub-99,,161.11624790000496,164.12731849995907,Passive,161.11624790000496,165.629394699994,27,0,159.19418980000773,27,161.09773069998482,165.6296575999586,C:\Experiments\tid_psam\psam\experiment_script\..\data\BIDS\sub-99\beh\sub-99_tid_psam_main_experiment_2025-03-20_13h56.40.550_mic_recorded\recording_mic_2025-03-20_13h59.30.193.wav,27,27,0,27,,,,
165.63007989997277,167.37732599995798,3.03517439996358,3.0018379999673925,,167.39386780001223,171.94358259998262,2025-03-20_13h56.40.550,tid_psam_main_experiment,2025-03-20 13h56.44.566219 +0100,166.0960629999754,60.00582055302952,,,,,,,,C:\Experiments\tid_psam\psam\experiment_script\..\data\BIDS\sub-99\beh\sub-99_tid_psam_main_experiment_2025-03-20_13h56.40.550_mic_recorded\recording_mic_2025-03-20_13h59.36.491.wav,2.4997146999812685,3.999617599998601,,99,Yes,0.08,1,2.8996532000019215,2.9947440999676473,2.9,Late,170.2792324666555,170.37205349997384,Normal,2024.2.4,C:\Experiments\tid_psam\psam\data\BIDS\stimuli\sub-99\sub-99_normal_probe.wav,sub-99,,167.39386780001223,170.39368310000282,Passive,167.39386780001223,171.8935165000148,28,0,165.64604630001122,28,167.37763529998483,171.92722529999446,C:\Experiments\tid_psam\psam\experiment_script\..\data\BIDS\sub-99\beh\sub-99_tid_psam_main_experiment_2025-03-20_13h56.40.550_mic_recorded\recording_mic_2025-03-20_13h59.36.491.wav,28,28,0,28,,,,
171.9276530999923,172.9436631000135,3.0184374999953434,3.0019057000172324,,172.96244370000204,177.49323309998726,2025-03-20_13h56.40.550,tid_psam_main_experiment,2025-03-20 13h56.44.566219 +0100,172.37670799996704,60.00582055302952,,,,,,,,C:\Experiments\tid_psam\psam\experiment_script\..\data\BIDS\sub-99\beh\sub-99_tid_psam_main_experiment_2025-03-20_13h56.40.550_mic_recorded\recording_mic_2025-03-20_13h59.42.040.wav,2.5017512000049464,4.018573999986984,,99,Yes,0.08,1,2.915089200017974,2.9854618000099435,2.9,Late,175.8432451666488,175.92911889997777,Normal,2024.2.4,C:\Experiments\tid_psam\psam\data\BIDS\stimuli\sub-99\sub-99_normal_probe.wav,sub-99,,172.96244370000204,175.96209109999472,Active,172.96244370000204,177.47659129998647,29,0,171.94358259998262,29,172.945081199985,177.47683509998024,C:\Experiments\tid_psam\psam\experiment_script\..\data\BIDS\sub-99\beh\sub-99_tid_psam_main_experiment_2025-03-20_13h56.40.550_mic_recorded\recording_mic_2025-03-20_13h59.42.040.wav,29,29,0,29,,,,
177.4773741000099,178.9790661999723,3.030470099998638,3.0008966000168584,,178.99535779998405,183.52616820001276,2025-03-20_13h56.40.550,tid_psam_main_experiment,2025-03-20 13h56.44.566219 +0100,177.94323949998943,60.00582055302952,,,,,,,,C:\Experiments\tid_psam\psam\experiment_script\..\data\BIDS\sub-99\beh\sub-99_tid_psam_main_experiment_2025-03-20_13h56.40.550_mic_recorded\recording_mic_2025-03-20_13h59.48.075.wav,2.5162861000280827,4.030623400001787,,99,Yes,0.08,1,2.913936500030104,3.0008966000168584,2.9,Late,181.89297866664518,181.97995149996132,Pitch,2024.2.4,C:\Experiments\tid_psam\psam\data\BIDS\stimuli\sub-99\sub-99_pitch_probe.wav,sub-99,,178.99535779998405,181.99286369996844,Active,178.99535779998405,183.4928757000016,30,0,177.49323309998726,30,178.97937159996945,183.51205149997259,C:\Experiments\tid_psam\psam\experiment_script\..\data\BIDS\sub-99\beh\sub-99_tid_psam_main_experiment_2025-03-20_13h56.40.550_mic_recorded\recording_mic_2025-03-20_13h59.48.075.wav,30,30,0,30,,,,
183.5124705999624,185.19509970000945,3.033019999973476,3.0141769999754615,,185.20941810001386,189.75910239998484,2025-03-20_13h56.40.550,tid_psam_main_experiment,2025-03-20 13h56.44.566219 +0100,183.9928487999714,60.00582055302952,,,,,,,,C:\Experiments\tid_psam\psam\experiment_script\..\data\BIDS\sub-99\beh\sub-99_tid_psam_main_experiment_2025-03-20_13h56.40.550_mic_recorded\recording_mic_2025-03-20_13h59.54.306.wav,2.5162577999872155,4.0328020000015385,,99,No,0,0,5.4100004490464926e-05,5.4100004490464926e-05,0,None,185.2116450666256,185.20941810001386,None,2024.2.4,None,sub-99,,185.20941810001386,188.2092619999894,Active,185.20941810001386,189.70919049996883,31,0,183.52616820001276,31,185.1951468999614,189.7427854000125,C:\Experiments\tid_psam\psam\experiment_script\..\data\BIDS\sub-99\beh\sub-99_tid_psam_main_experiment_2025-03-20_13h56.40.550_mic_recorded\recording_mic_2025-03-20_13h59.54.306.wav,31,31,0,31,,,,
189.74341900000582,191.67583759996342,3.0330400999519043,3.0162696999614127,,191.6923797999625,196.22755129996222,2025-03-20_13h56.40.550,tid_psam_main_experiment,2025-03-20 13h56.44.566219 +0100,190.20914639998227,60.00582055302952,,,,,,,,C:\Experiments\tid_psam\psam\experiment_script\..\data\BIDS\sub-99\beh\sub-99_tid_psam_main_experiment_2025-03-20_13h56.40.550_mic_recorded\recording_mic_2025-03-20_14h00.00.774.wav,2.499683999980334,3.999636099964846,,99,Yes,0.08,1,2.901783599983901,2.9867623999598436,2.9,Late,194.5755467666352,194.66258579998976,Normal,2024.2.4,C:\Experiments\tid_psam\psam\data\BIDS\stimuli\sub-99\sub-99_normal_probe.wav,sub-99,,191.6923797999625,194.6920936999959,Passive,191.6923797999625,196.19214239995927,32,0,189.75910239998484,32,191.67714649997652,196.21122479997575,C:\Experiments\tid_psam\psam\experiment_script\..\data\BIDS\sub-99\beh\sub-99_tid_psam_main_experiment_2025-03-20_13h56.40.550_mic_recorded\recording_mic_2025-03-20_14h00.00.774.wav,32,32,0,32,,,,
196.21165459998883,197.94223149999743,3.032820299966261,3.016155399964191,,197.96104869997362,202.50832600001013,2025-03-20_13h56.40.550,tid_psam_main_experiment,2025-03-20 13h56.44.566219 +0100,196.67542139999568,60.00582055302952,,,,,,,,C:\Experiments\tid_psam\psam\experiment_script\..\data\BIDS\sub-99\beh\sub-99_tid_psam_main_experiment_2025-03-20_13h56.40.550_mic_recorded\recording_mic_2025-03-20_14h00.07.056.wav,2.499526600004174,3.999520500015933,,99,No,0,0,0.001206599990837276,0.001206599990837276,0,None,197.95867796667542,197.96104869997362,None,2024.2.4,None,sub-99,,197.96104869997362,200.97503400000278,Active,197.96104869997362,202.4750294999685,33,0,196.22755129996222,33,197.94342729996424,202.49203389999457,C:\Experiments\tid_psam\psam\experiment_script\..\data\BIDS\sub-99\beh\sub-99_tid_psam_main_experiment_2025-03-20_13h56.40.550_mic_recorded\recording_mic_2025-03-20_14h00.07.056.wav,33,33,0,33,,,,
202.49246209999546,204.06061009998666,3.0165983000188135,3.0165983000188135,,204.0747939000139,208.61021899996558,2025-03-20_13h56.40.550,tid_psam_main_experiment,2025-03-20 13h56.44.566219 +0100,202.94389019999653,60.00582055302952,,,,,,,,C:\Experiments\tid_psam\psam\experiment_script\..\data\BIDS\sub-99\beh\sub-99_tid_psam_main_experiment_2025-03-20_13h56.40.550_mic_recorded\recording_mic_2025-03-20_14h00.13.157.wav,2.4999285000376403,4.014136700017843,,99,No,0,0,8.750002598389983e-05,8.750002598389983e-05,0,None,204.07706736663047,204.0747939000139,None,2024.2.4,None,sub-99,,204.0747939000139,207.07715510000708,Active,204.0747939000139,208.57481889997143,34,0,202.50832600001013,34,204.06068729999242,208.59386789996643,C:\Experiments\tid_psam\psam\experiment_script\..\data\BIDS\sub-99\beh\sub-99_tid_psam_main_experiment_2025-03-20_13h56.40.550_mic_recorded\recording_mic_2025-03-20_14h00.13.157.wav,34,34,0,34,,,,
208.5942997999955,210.12489480001386,3.032119799987413,3.032119799987413,,210.14126589999069,214.6767498999834,2025-03-20_13h56.40.550,tid_psam_main_experiment,2025-03-20 13h56.44.566219 +0100,209.07458779995795,60.00582055302952,,,,,,,,C:\Experiments\tid_psam\psam\experiment_script\..\data\BIDS\sub-99\beh\sub-99_tid_psam_main_experiment_2025-03-20_13h56.40.550_mic_recorded\recording_mic_2025-03-20_14h00.19.221.wav,2.501651500002481,4.016161800012924,,99,No,0,0,0.0011977999820373952,0.0011977999820373952,0,None,210.14134596666943,210.14126589999069,None,2024.2.4,None,sub-99,,210.14126589999069,213.15699489996769,Passive,210.14126589999069,214.64314070000546,35,0,208.61021899996558,35,210.12608219997492,214.6579630000051,C:\Experiments\tid_psam\psam\experiment_script\..\data\BIDS\sub-99\beh\sub-99_tid_psam_main_experiment_2025-03-20_13h56.40.550_mic_recorded\recording_mic_2025-03-20_14h00.19.221.wav,35,35,0,35,,,,
214.65839100000449,215.67446529999143,3.0164150000200607,3.001806000014767,,215.6907968999585,220.22392979997676,2025-03-20_13h56.40.550,tid_psam_main_experiment,2025-03-20 13h56.44.566219 +0100,215.12654339999426,60.00582055302952,,,,,,,,C:\Experiments\tid_psam\psam\experiment_script\..\data\BIDS\sub-99\beh\sub-99_tid_psam_main_experiment_2025-03-20_13h56.40.550_mic_recorded\recording_mic_2025-03-20_14h00.24.771.wav,2.4997389999916777,3.9995101999957114,,99,No,0,0,5.289999535307288e-05,5.289999535307288e-05,0,None,215.6909120666717,215.6907968999585,None,2024.2.4,None,sub-99,,215.6907968999585,218.69084830000065,Passive,215.6907968999585,220.19063329999335,36,0,214.6767498999834,36,215.67451330000767,220.20759519998683,C:\Experiments\tid_psam\psam\experiment_script\..\data\BIDS\sub-99\beh\sub-99_tid_psam_main_experiment_2025-03-20_13h56.40.550_mic_recorded\recording_mic_2025-03-20_14h00.24.771.wav,36,36,0,36,,,,
220.20801140001277,221.77398559998255,3.033102700021118,3.0019937999895774,,221.7905498999753,226.34035349998157,2025-03-20_13h56.40.550,tid_psam_main_experiment,2025-03-20 13h56.44.566219 +0100,220.6741812999826,60.00582055302952,,,,,,,,C:\Experiments\tid_psam\psam\experiment_script\..\data\BIDS\sub-99\beh\sub-99_tid_psam_main_experiment_2025-03-20_13h56.40.550_mic_recorded\recording_mic_2025-03-20_14h00.30.889.wav,2.5017248999793082,4.001906100020278,,99,Yes,0.08,1,2.9018079999950714,3.0019937999895774,2.9,Late,224.67583336664055,224.7759646999766,Pitch,2024.2.4,C:\Experiments\tid_psam\psam\data\BIDS\stimuli\sub-99\sub-99_pitch_probe.wav,sub-99,,221.7905498999753,224.7796306000091,Active,221.7905498999753,226.29031660000328,37,0,220.22392979997676,37,221.77517779998016,226.325979599962,C:\Experiments\tid_psam\psam\experiment_script\..\data\BIDS\sub-99\beh\sub-99_tid_psam_main_experiment_2025-03-20_13h56.40.550_mic_recorded\recording_mic_2025-03-20_14h00.30.889.wav,37,37,0,37,,,,
226.32638879999286,227.94247869995888,3.0308249999652617,3.014231999986805,,227.95679430000018,232.4899119999609,2025-03-20_13h56.40.550,tid_psam_main_experiment,2025-03-20 13h56.44.566219 +0100,226.77573359996313,60.00582055302952,,,,,,,,C:\Experiments\tid_psam\psam\experiment_script\..\data\BIDS\sub-99\beh\sub-99_tid_psam_main_experiment_2025-03-20_13h56.40.550_mic_recorded\recording_mic_2025-03-20_14h00.37.039.wav,2.514255099988077,4.016202399972826,,99,No,0,0,5.259999306872487e-05,5.259999306872487e-05,0,None,227.959032466639,227.95679430000018,None,2024.2.4,None,sub-99,,227.95679430000018,230.95669809996616,Active,227.95679430000018,232.4565414999961,38,0,226.34035349998157,38,227.9425246999599,232.47561849997146,C:\Experiments\tid_psam\psam\experiment_script\..\data\BIDS\sub-99\beh\sub-99_tid_psam_main_experiment_2025-03-20_13h56.40.550_mic_recorded\recording_mic_2025-03-20_14h00.37.039.wav,38,38,0,38,,,,
232.47603999997955,233.95867490000091,3.033075799990911,3.0142733000102453,,233.97307680000085,238.52515499998117,2025-03-20_13h56.40.550,tid_psam_main_experiment,2025-03-20 13h56.44.566219 +0100,232.95644559996435,60.00582055302952,,,,,,,,C:\Experiments\tid_psam\psam\experiment_script\..\data\BIDS\sub-99\beh\sub-99_tid_psam_main_experiment_2025-03-20_13h56.40.550_mic_recorded\recording_mic_2025-03-20_14h00.43.072.wav,2.499806899984833,3.9975716999615543,,99,No,0,0,0.0011762999929487705,0.0011762999929487705,0,None,233.97520456667215,233.97307680000085,None,2024.2.4,None,sub-99,,233.97307680000085,236.97293170000194,Passive,233.97307680000085,238.47284229996148,39,0,232.4899119999609,39,233.95983780000824,238.50846589996945,C:\Experiments\tid_psam\psam\experiment_script\..\data\BIDS\sub-99\beh\sub-99_tid_psam_main_experiment_2025-03-20_13h56.40.550_mic_recorded\recording_mic_2025-03-20_14h00.43.072.wav,39,39,0,39,,,,
238.5088773999596,240.37509919999866,3.0329530999879353,3.0140929999761283,,240.38943039998412,244.9413270999794,2025-03-20_13h56.40.550,tid_psam_main_experiment,2025-03-20 13h56.44.566219 +0100,238.9562455000123,60.00582055302952,,,,,,,,C:\Experiments\tid_psam\psam\experiment_script\..\data\BIDS\sub-99\beh\sub-99_tid_psam_main_experiment_2025-03-20_13h56.40.550_mic_recorded\recording_mic_2025-03-20_14h00.49.489.wav,2.499616099987179,3.999523099977523,,99,Yes,0.08,1,2.8141279999981634,2.8974650999880396,2.8,Early,243.1747349666587,243.26009459997294,Pitch,2024.2.4,C:\Experiments\tid_psam\psam\data\BIDS\stimuli\sub-99\sub-99_pitch_probe.wav,sub-99,,240.38943039998412,243.38917799998308,Active,240.38943039998412,244.8912440999993,40,0,238.52515499998117,40,240.37638229998993,244.92501770000672,C:\Experiments\tid_psam\psam\experiment_script\..\data\BIDS\sub-99\beh\sub-99_tid_psam_main_experiment_2025-03-20_13h56.40.550_mic_recorded\recording_mic_2025-03-20_14h00.49.489.wav,40,40,0,40,,,,
244.92543289996684,246.78915779996896,3.032991200045217,3.016384900023695,,246.80780919996323,251.34087099996395,2025-03-20_13h56.40.550,tid_psam_main_experiment,2025-03-20 13h56.44.566219 +0100,245.37456279998878,60.00582055302952,,,,,,,,C:\Experiments\tid_psam\psam\experiment_script\..\data\BIDS\sub-99\beh\sub-99_tid_psam_main_experiment_2025-03-20_13h56.40.550_mic_recorded\recording_mic_2025-03-20_14h00.55.888.wav,2.4997416000114754,4.00186030002078,,99,Yes,0.08,1,2.899720299988985,2.98297700000694,2.9,Late,249.69102346664684,249.7721218999941,Normal,2024.2.4,C:\Experiments\tid_psam\psam\data\BIDS\stimuli\sub-99\sub-99_normal_probe.wav,sub-99,,246.80780919996323,249.82213659997797,Active,246.80780919996323,251.3055875999853,41,0,244.9413270999794,41,246.78947029996198,251.3244330000016,C:\Experiments\tid_psam\psam\experiment_script\..\data\BIDS\sub-99\beh\sub-99_tid_psam_main_experiment_2025-03-20_13h56.40.550_mic_recorded\recording_mic_2025-03-20_14h00.55.888.wav,41,41,0,41,,,,
251.32484349998413,252.92440269998042,3.032870399998501,3.0139942999812774,,252.93861469998956,257.4904803999816,2025-03-20_13h56.40.550,tid_psam_main_experiment,2025-03-20 13h56.44.566219 +0100,251.79080959997373,60.00582055302952,,,,,,,,C:\Experiments\tid_psam\psam\experiment_script\..\data\BIDS\sub-99\beh\sub-99_tid_psam_main_experiment_2025-03-20_13h56.40.550_mic_recorded\recording_mic_2025-03-20_14h01.02.035.wav,2.5140307000256144,4.016186800028663,,99,Yes,0.08,1,2.9161415999988094,2.997335000021849,2.9,Late,255.82394336664973,255.9050393999787,Pitch,2024.2.4,C:\Experiments\tid_psam\psam\data\BIDS\stimuli\sub-99\sub-99_pitch_probe.wav,sub-99,,252.93861469998956,255.9383695999859,Passive,252.93861469998956,257.43838469998445,42,0,251.34087099996395,42,252.9259607999702,257.4719511999865,C:\Experiments\tid_psam\psam\experiment_script\..\data\BIDS\sub-99\beh\sub-99_tid_psam_main_experiment_2025-03-20_13h56.40.550_mic_recorded\recording_mic_2025-03-20_14h01.02.035.wav,42,42,0,42,,,,
257.47239399998216,258.88845049997326,3.035121800028719,3.0017697000293992,,258.9049296999583,263.45457010000246,2025-03-20_13h56.40.550,tid_psam_main_experiment,2025-03-20 13h56.44.566219 +0100,257.9383151999791,60.00582055302952,,,,,,,,C:\Experiments\tid_psam\psam\experiment_script\..\data\BIDS\sub-99\beh\sub-99_tid_psam_main_experiment_2025-03-20_13h56.40.550_mic_recorded\recording_mic_2025-03-20_14h01.08.002.wav,2.5018217000178993,4.018462500011083,,99,Yes,0.08,1,2.801785000017844,2.8860852000070736,2.8,Early,261.6882033666518,261.7745212999871,Normal,2024.2.4,C:\Experiments\tid_psam\psam\data\BIDS\stimuli\sub-99\sub-99_normal_probe.wav,sub-99,,258.9049296999583,261.90685989998747,Active,258.9049296999583,263.4046108999755,43,0,257.4904803999816,43,258.88977730000624,263.43824419996236,C:\Experiments\tid_psam\psam\experiment_script\..\data\BIDS\sub-99\beh\sub-99_tid_psam_main_experiment_2025-03-20_13h56.40.550_mic_recorded\recording_mic_2025-03-20_14h01.08.002.wav,43,43,0,43,,,,
263.4386557000107,264.5714529000106,3.018451499985531,3.018451499985531,,264.587868099974,269.1231904999586,2025-03-20_13h56.40.550,tid_psam_main_experiment,2025-03-20 13h56.44.566219 +0100,263.8901423999923,60.00582055302952,,,,,,,,C:\Experiments\tid_psam\psam\experiment_script\..\data\BIDS\sub-99\beh\sub-99_tid_psam_main_experiment_2025-03-20_13h56.40.550_mic_recorded\recording_mic_2025-03-20_14h01.13.668.wav,2.5017707999795675,3.9996914999792352,,99,No,0,0,8.069997420534492e-05,8.069997420534492e-05,0,None,264.58787536668046,264.587868099974,None,2024.2.4,None,sub-99,,264.587868099974,267.58989219996147,Active,264.587868099974,269.0876920999726,44,0,263.45457010000246,44,264.5715299999574,269.1047527999617,C:\Experiments\tid_psam\psam\experiment_script\..\data\BIDS\sub-99\beh\sub-99_tid_psam_main_experiment_2025-03-20_13h56.40.550_mic_recorded\recording_mic_2025-03-20_14h01.13.668.wav,44,44,0,44,,,,
269.10519799997564,270.68999109999277,3.0328127999673598,3.0140628999797627,,270.705315899977,275.2539921000134,2025-03-20_13h56.40.550,tid_psam_main_experiment,2025-03-20 13h56.44.566219 +0100,269.5709096000064,60.00582055302952,,,,,,,,C:\Experiments\tid_psam\psam\experiment_script\..\data\BIDS\sub-99\beh\sub-99_tid_psam_main_experiment_2025-03-20_13h56.40.550_mic_recorded\recording_mic_2025-03-20_14h01.19.801.wav,2.516246399958618,4.01617429999169,,99,No,0,0,0.0011252999538555741,0.0011252999538555741,0,None,270.70649596664975,270.705315899977,None,2024.2.4,None,sub-99,,270.705315899977,273.70404129999224,Passive,270.705315899977,275.2060923000099,45,0,269.1231904999586,45,270.69110729999375,275.2375885999645,C:\Experiments\tid_psam\psam\experiment_script\..\data\BIDS\sub-99\beh\sub-99_tid_psam_main_experiment_2025-03-20_13h56.40.550_mic_recorded\recording_mic_2025-03-20_14h01.19.801.wav,45,45,0,45,,,,
275.2380376000074,277.0541069000028,3.0161967999883927,3.0161967999883927,,277.07055070000933,281.60351599997375,2025-03-20_13h56.40.550,tid_psam_main_experiment,2025-03-20 13h56.44.566219 +0100,275.68946669995785,60.00582055302952,,,,,,,,C:\Experiments\tid_psam\psam\experiment_script\..\data\BIDS\sub-99\beh\sub-99_tid_psam_main_experiment_2025-03-20_13h56.40.550_mic_recorded\recording_mic_2025-03-20_14h01.26.151.wav,2.4996469999896362,4.016199100005906,,99,Yes,0.08,1,2.799521899956744,2.8828198999981396,2.8,Early,279.85577926662904,279.9369141999632,Normal,2024.2.4,C:\Experiments\tid_psam\psam\data\BIDS\stimuli\sub-99\sub-99_normal_probe.wav,sub-99,,277.07055070000933,280.0702881999896,Passive,277.07055070000933,281.5702012999682,46,0,275.2539921000134,46,277.05439890001435,281.58718490001047,C:\Experiments\tid_psam\psam\experiment_script\..\data\BIDS\sub-99\beh\sub-99_tid_psam_main_experiment_2025-03-20_13h56.40.550_mic_recorded\recording_mic_2025-03-20_14h01.26.151.wav,46,46,0,46,,,,
281.5876237999764,282.73915119998856,3.033224100014195,3.014201799989678,,282.7534590999712,287.3032596000121,2025-03-20_13h56.40.550,tid_psam_main_experiment,2025-03-20 13h56.44.566219 +0100,282.0534977999632,60.00582055302952,,,,,,,,C:\Experiments\tid_psam\psam\experiment_script\..\data\BIDS\sub-99\beh\sub-99_tid_psam_main_experiment_2025-03-20_13h56.40.550_mic_recorded\recording_mic_2025-03-20_14h01.31.850.wav,2.5142399999895133,4.033186500018928,,99,Yes,0.08,1,2.8142230000230484,2.9032764000003226,2.8,Early,285.55335896666315,285.6424132999964,Pitch,2024.2.4,C:\Experiments\tid_psam\psam\data\BIDS\stimuli\sub-99\sub-99_pitch_probe.wav,sub-99,,282.7534590999712,285.75333719997434,Passive,282.7534590999712,287.2532702999888,47,0,281.60351599997375,47,282.7394527000142,287.2868593999883,C:\Experiments\tid_psam\psam\experiment_script\..\data\BIDS\sub-99\beh\sub-99_tid_psam_main_experiment_2025-03-20_13h56.40.550_mic_recorded\recording_mic_2025-03-20_14h01.31.850.wav,47,47,0,47,,,,
287.287308799976,289.02205580001464,3.0310391999664716,3.016446099965833,,289.0364749999717,293.58856399997603,2025-03-20_13h56.40.550,tid_psam_main_experiment,2025-03-20 13h56.44.566219 +0100,287.75337960000616,60.00582055302952,,,,,,,,C:\Experiments\tid_psam\psam\experiment_script\..\data\BIDS\sub-99\beh\sub-99_tid_psam_main_experiment_2025-03-20_13h56.40.550_mic_recorded\recording_mic_2025-03-20_14h01.38.133.wav,2.5143016999936663,4.033040799957234,,99,Yes,0.08,1,2.8143242999794893,2.9167218999937177,2.8,Early,291.83647046663486,291.93876170000294,Pitch,2024.2.4,C:\Experiments\tid_psam\psam\data\BIDS\stimuli\sub-99\sub-99_pitch_probe.wav,sub-99,,289.0364749999717,292.03848409996135,Passive,289.0364749999717,293.53625279996777,48,0,287.3032596000121,48,289.0223743999959,293.56990130001213,C:\Experiments\tid_psam\psam\experiment_script\..\data\BIDS\sub-99\beh\sub-99_tid_psam_main_experiment_2025-03-20_13h56.40.550_mic_recorded\recording_mic_2025-03-20_14h01.38.133.wav,48,48,0,48,,,,
293.57034759997623,295.1697003999725,3.0329318000003695,3.0017495000502095,,295.1861551000038,299.7359255999909,2025-03-20_13h56.40.550,tid_psam_main_experiment,2025-03-20 13h56.44.566219 +0100,294.02165219996823,60.00582055302952,,,,,,,,C:\Experiments\tid_psam\psam\experiment_script\..\data\BIDS\sub-99\beh\sub-99_tid_psam_main_experiment_2025-03-20_13h56.40.550_mic_recorded\recording_mic_2025-03-20_14h01.44.283.wav,2.501788299996406,4.001707900024485,,99,No,0,0,0.0011217000428587198,0.0011217000428587198,0,None,295.18622376665394,295.1861551000038,None,2024.2.4,None,sub-99,,295.1861551000038,298.18605879996903,Active,295.1861551000038,299.6859261000063,49,0,293.58856399997603,49,295.17081099998904,299.71947589999763,C:\Experiments\tid_psam\psam\experiment_script\..\data\BIDS\sub-99\beh\sub-99_tid_psam_main_experiment_2025-03-20_13h56.40.550_mic_recorded\recording_mic_2025-03-20_14h01.44.283.wav,49,49,0,49,,,,
299.71989599999506,300.9193280999898,3.018481699982658,3.001872299995739,,300.9379812999978,305.4710340999882,2025-03-20_13h56.40.550,tid_psam_main_experiment,2025-03-20 13h56.44.566219 +0100,300.1691933000111,60.00582055302952,,,,,,,,C:\Experiments\tid_psam\psam\experiment_script\..\data\BIDS\sub-99\beh\sub-99_tid_psam_main_experiment_2025-03-20_13h56.40.550_mic_recorded\recording_mic_2025-03-20_14h01.50.015.wav,2.5017228000215255,4.016129900002852,,99,Yes,0.08,1,2.899597499985248,2.9863149999873713,2.9,Late,303.81892596662897,303.9056285999832,Pitch,2024.2.4,C:\Experiments\tid_psam\psam\data\BIDS\stimuli\sub-99\sub-99_pitch_probe.wav,sub-99,,300.9379812999978,303.9377946999739,Passive,300.9379812999978,305.4521813999745,50,0,299.7359255999909,50,300.920627399988,305.4524709999678,C:\Experiments\tid_psam\psam\experiment_script\..\data\BIDS\sub-99\beh\sub-99_tid_psam_main_experiment_2025-03-20_13h56.40.550_mic_recorded\recording_mic_2025-03-20_14h01.50.015.wav,50,50,0,50,,,,
305.4529049000121,307.3712472000043,3.0306937000132166,3.014039000030607,,307.38540739996824,311.92068270000163,2025-03-20_13h56.40.550,tid_psam_main_experiment,2025-03-20 13h56.44.566219 +0100,305.91883169999346,60.00582055302952,,,,,,,,C:\Experiments\tid_psam\psam\experiment_script\..\data\BIDS\sub-99\beh\sub-99_tid_psam_main_experiment_2025-03-20_13h56.40.550_mic_recorded\recording_mic_2025-03-20_14h01.56.466.wav,2.5139118999941275,4.0328097000019625,,99,No,0,0,0.0010491000139154494,0.0010491000139154494,0,None,307.3876692666711,307.38540739996824,None,2024.2.4,None,sub-99,,307.38540739996824,310.3852736999979,Active,307.38540739996824,311.8852212000056,51,0,305.4710340999882,51,307.3722892999649,311.9022865999723,C:\Experiments\tid_psam\psam\experiment_script\..\data\BIDS\sub-99\beh\sub-99_tid_psam_main_experiment_2025-03-20_13h56.40.550_mic_recorded\recording_mic_2025-03-20_14h01.56.466.wav,51,51,0,51,,,,
311.9027072999743,313.6852881999803,3.034972599998582,3.016202000027988,,313.70161729998654,318.25141019996954,2025-03-20_13h56.40.550,tid_psam_main_experiment,2025-03-20 13h56.44.566219 +0100,312.38508659997024,60.00582055302952,,,,,,,,C:\Experiments\tid_psam\psam\experiment_script\..\data\BIDS\sub-99\beh\sub-99_tid_psam_main_experiment_2025-03-20_13h56.40.550_mic_recorded\recording_mic_2025-03-20_14h02.02.800.wav,2.4995013000443578,4.0018233000300825,,99,No,0,0,5.2499992307275534e-05,5.2499992307275534e-05,0,None,313.70172946667685,313.70161729998654,None,2024.2.4,None,sub-99,,313.70161729998654,316.70147450000513,Active,313.70161729998654,318.20138909999514,52,0,311.92068270000163,52,313.68533409998054,318.2372206999571,C:\Experiments\tid_psam\psam\experiment_script\..\data\BIDS\sub-99\beh\sub-99_tid_psam_main_experiment_2025-03-20_13h56.40.550_mic_recorded\recording_mic_2025-03-20_14h02.02.800.wav,52,52,0,52,,,,
318.23762699996587,319.9014873999986,3.016268500010483,3.016268500010483,,319.9201802999596,324.45327229995746,2025-03-20_13h56.40.550,tid_psam_main_experiment,2025-03-20 13h56.44.566219 +0100,318.68720519996714,60.00582055302952,,,,,,,,C:\Experiments\tid_psam\psam\experiment_script\..\data\BIDS\sub-99\beh\sub-99_tid_psam_main_experiment_2025-03-20_13h56.40.550_mic_recorded\recording_mic_2025-03-20_14h02.08.997.wav,2.499867099977564,4.016207400010899,,99,No,0,0,0.0009939000010490417,0.0009939000010490417,0,None,319.9180242666664,319.9201802999596,None,2024.2.4,None,sub-99,,319.9201802999596,322.93659950001165,Passive,319.9201802999596,324.43430640001316,53,0,318.25141019996954,53,319.90247009997256,324.43456510000397,C:\Experiments\tid_psam\psam\experiment_script\..\data\BIDS\sub-99\beh\sub-99_tid_psam_main_experiment_2025-03-20_13h56.40.550_mic_recorded\recording_mic_2025-03-20_14h02.08.997.wav,53,53,0,53,,,,
324.43502209999133,325.66768249997403,3.016425200039521,3.016425200039521,,325.68647039995994,330.2172913000104,2025-03-20_13h56.40.550,tid_psam_main_experiment,2025-03-20 13h56.44.566219 +0100,324.9009986000019,60.00582055302952,,,,,,,,C:\Experiments\tid_psam\psam\experiment_script\..\data\BIDS\sub-99\beh\sub-99_tid_psam_main_experiment_2025-03-20_13h56.40.550_mic_recorded\recording_mic_2025-03-20_14h02.14.765.wav,2.4997915000421926,4.001892900036182,,99,Yes,0.08,1,2.7997125000110827,2.8844430000171997,2.8,Early,328.4673882666432,328.5521105999942,Normal,2024.2.4,C:\Experiments\tid_psam\psam\data\BIDS\stimuli\sub-99\sub-99_normal_probe.wav,sub-99,,325.68647039995994,328.7007131999708,Active,325.68647039995994,330.2006638000021,54,0,324.45327229995746,54,325.66891919996124,330.2009179999586,C:\Experiments\tid_psam\psam\experiment_script\..\data\BIDS\sub-99\beh\sub-99_tid_psam_main_experiment_2025-03-20_13h56.40.550_mic_recorded\recording_mic_2025-03-20_14h02.14.765.wav,54,54,0,54,,,,
330.20133040001383,331.68415310001,3.0162613000138663,3.0018323000404052,,331.7027611999656,336.23592489998555,2025-03-20_13h56.40.550,tid_psam_main_experiment,2025-03-20 13h56.44.566219 +0100,330.6672569999937,60.00582055302952,,,,,,,,C:\Experiments\tid_psam\psam\experiment_script\..\data\BIDS\sub-99\beh\sub-99_tid_psam_main_experiment_2025-03-20_13h56.40.550_mic_recorded\recording_mic_2025-03-20_14h02.20.782.wav,2.4996381000382826,3.9995882000075653,,99,Yes,0.08,1,2.899646700010635,2.9830632000230253,2.9,Late,334.5837731666436,334.6671806999948,Normal,2024.2.4,C:\Experiments\tid_psam\psam\data\BIDS\stimuli\sub-99\sub-99_normal_probe.wav,sub-99,,331.7027611999656,334.70040279999375,Active,331.7027611999656,336.2190534999827,55,0,330.2172913000104,55,331.6844906999613,336.21929659997113,C:\Experiments\tid_psam\psam\experiment_script\..\data\BIDS\sub-99\beh\sub-99_tid_psam_main_experiment_2025-03-20_13h56.40.550_mic_recorded\recording_mic_2025-03-20_14h02.20.782.wav,55,55,0,55,,,,
336.21971129998565,337.21717660001013,3.01848270004848,3.0018017000402324,,337.23355780000566,341.7666763999732,2025-03-20_13h56.40.550,tid_psam_main_experiment,2025-03-20 13h56.44.566219 +0100,336.683636199974,60.00582055302952,,,,,,,,C:\Experiments\tid_psam\psam\experiment_script\..\data\BIDS\sub-99\beh\sub-99_tid_psam_main_experiment_2025-03-20_13h56.40.550_mic_recorded\recording_mic_2025-03-20_14h02.26.314.wav,2.499575600028038,4.016218300035689,,99,Yes,0.08,1,2.8996232000063173,2.988592800043989,2.9,Late,340.11680336663653,340.2057562000118,Normal,2024.2.4,C:\Experiments\tid_psam\psam\data\BIDS\stimuli\sub-99\sub-99_normal_probe.wav,sub-99,,337.23355780000566,340.23564649996115,Passive,337.23355780000566,341.73336449998897,56,0,336.23592489998555,56,337.2184372000047,341.75025139999343,C:\Experiments\tid_psam\psam\experiment_script\..\data\BIDS\sub-99\beh\sub-99_tid_psam_main_experiment_2025-03-20_13h56.40.550_mic_recorded\recording_mic_2025-03-20_14h02.26.314.wav,56,56,0,56,,,,
341.7506920999731,342.78556769998977,3.0164063000120223,3.0164063000120223,,342.8021552999853,347.3352667000145,2025-03-20_13h56.40.550,tid_psam_main_experiment,2025-03-20 13h56.44.566219 +0100,342.2166144999792,60.00582055302952,,,,,,,,C:\Experiments\tid_psam\psam\experiment_script\..\data\BIDS\sub-99\beh\sub-99_tid_psam_main_experiment_2025-03-20_13h56.40.550_mic_recorded\recording_mic_2025-03-20_14h02.31.882.wav,2.499874099972658,3.9974767999956384,,99,No,0,0,4.989997250959277e-05,4.989997250959277e-05,0,None,342.80211186665497,342.8021552999853,None,2024.2.4,None,sub-99,,342.8021552999853,345.80195469997125,Passive,342.8021552999853,347.31857760000275,57,0,341.7666763999732,57,342.78561249998165,347.31886790000135,C:\Experiments\tid_psam\psam\experiment_script\..\data\BIDS\sub-99\beh\sub-99_tid_psam_main_experiment_2025-03-20_13h56.40.550_mic_recorded\recording_mic_2025-03-20_14h02.31.882.wav,57,57,0,57,,,,
347.31928369996604,349.0830756999785,3.0184874000260606,3.0184874000260606,,349.10170749999816,353.63490959996125,2025-03-20_13h56.40.550,tid_psam_main_experiment,2025-03-20 13h56.44.566219 +0100,347.7829636000097,60.00582055302952,,,,,,,,C:\Experiments\tid_psam\psam\experiment_script\..\data\BIDS\sub-99\beh\sub-99_tid_psam_main_experiment_2025-03-20_13h56.40.550_mic_recorded\recording_mic_2025-03-20_14h02.38.182.wav,2.501885800040327,4.01850430003833,,99,Yes,0.08,1,2.799622900027316,2.883020800014492,2.8,Early,351.8849038666269,351.9660830000066,Normal,2024.2.4,C:\Experiments\tid_psam\psam\data\BIDS\stimuli\sub-99\sub-99_normal_probe.wav,sub-99,,349.10170749999816,352.1161412000074,Passive,349.10170749999816,353.6183462999761,58,0,347.3352667000145,58,349.0833731999737,353.6186551999999,C:\Experiments\tid_psam\psam\experiment_script\..\data\BIDS\sub-99\beh\sub-99_tid_psam_main_experiment_2025-03-20_13h56.40.550_mic_recorded\recording_mic_2025-03-20_14h02.38.182.wav,58,58,0,58,,,,
353.6190738999867,354.83283470000606,3.016240699973423,3.0016892999992706,,354.8514697999926,359.3822905999841,2025-03-20_13h56.40.550,tid_psam_main_experiment,2025-03-20 13h56.44.566219 +0100,354.08256149996305,60.00582055302952,,,,,,,,C:\Experiments\tid_psam\psam\experiment_script\..\data\BIDS\sub-99\beh\sub-99_tid_psam_main_experiment_2025-03-20_13h56.40.550_mic_recorded\recording_mic_2025-03-20_14h02.43.931.wav,2.4995835999725387,3.9994847999769263,,99,No,0,0,0.0009717000066302717,0.0009717000066302717,0,None,354.8492232666506,354.8514697999926,None,2024.2.4,None,sub-99,,354.8514697999926,357.84906069998397,Active,354.8514697999926,359.34904030000325,59,0,353.63490959996125,59,354.8337936999742,359.3679361999966,C:\Experiments\tid_psam\psam\experiment_script\..\data\BIDS\sub-99\beh\sub-99_tid_psam_main_experiment_2025-03-20_13h56.40.550_mic_recorded\recording_mic_2025-03-20_14h02.43.931.wav,59,59,0,59,,,,
359.368372500001,360.8326022999827,3.016297800000757,3.0015097000286914,,360.85092689999146,365.3840173999779,2025-03-20_13h56.40.550,tid_psam_main_experiment,2025-03-20 13h56.44.566219 +0100,359.8323558999691,60.00582055302952,,,,,,,,C:\Experiments\tid_psam\psam\experiment_script\..\data\BIDS\sub-99\beh\sub-99_tid_psam_main_experiment_2025-03-20_13h56.40.550_mic_recorded\recording_mic_2025-03-20_14h02.49.930.wav,2.501627499994356,4.01604459999362,,99,Yes,0.08,1,2.9015624999883585,2.990635599999223,2.9,Late,363.7320473666807,363.82323079998605,Pitch,2024.2.4,C:\Experiments\tid_psam\psam\data\BIDS\stimuli\sub-99\sub-99_pitch_probe.wav,sub-99,,360.85092689999146,363.8488886000123,Active,360.85092689999146,365.3674245000002,60,0,359.3822905999841,60,360.83304019999923,365.3676870999625,C:\Experiments\tid_psam\psam\experiment_script\..\data\BIDS\sub-99\beh\sub-99_tid_psam_main_experiment_2025-03-20_13h56.40.550_mic_recorded\recording_mic_2025-03-20_14h02.49.930.wav,60,60,0,60,,,,
365.36811749998014,367.2486104000127,3.0352079999865964,3.0164120999979787,,367.26734590000706,371.8148954999633,2025-03-20_13h56.40.550,tid_psam_main_experiment,2025-03-20 13h56.44.566219 +0100,365.83178329997463,60.00582055302952,,,,,,,,C:\Experiments\tid_psam\psam\experiment_script\..\data\BIDS\sub-99\beh\sub-99_tid_psam_main_experiment_2025-03-20_13h56.40.550_mic_recorded\recording_mic_2025-03-20_14h02.56.364.wav,2.4996903999708593,3.999738599988632,,99,Yes,0.08,1,2.7996210999554023,2.8880530999740586,2.8,Early,370.0504965666371,370.1366498999996,Pitch,2024.2.4,C:\Experiments\tid_psam\psam\data\BIDS\stimuli\sub-99\sub-99_pitch_probe.wav,sub-99,,367.26734590000706,370.2837787999888,Active,367.26734590000706,371.76711570000043,61,0,365.3840173999779,61,367.24892019998515,371.8007110999897,C:\Experiments\tid_psam\psam\experiment_script\..\data\BIDS\sub-99\beh\sub-99_tid_psam_main_experiment_2025-03-20_13h56.40.550_mic_recorded\recording_mic_2025-03-20_14h02.56.364.wav,61,61,0,61,,,,
371.80113330000313,373.25034989998676,3.016364999988582,3.016364999988582,,373.26508459995966,377.79788109997753,2025-03-20_13h56.40.550,tid_psam_main_experiment,2025-03-20 13h56.44.566219 +0100,372.2481172999833,60.00582055302952,,,,,,,,C:\Experiments\tid_psam\psam\experiment_script\..\data\BIDS\sub-99\beh\sub-99_tid_psam_main_experiment_2025-03-20_13h56.40.550_mic_recorded\recording_mic_2025-03-20_14h03.02.347.wav,2.5143198000150733,4.014222500030883,,99,No,0,0,0.0009916999842971563,0.0009916999842971563,0,None,373.26688116667015,373.26508459995966,None,2024.2.4,None,sub-99,,373.26508459995966,376.2666999999783,Passive,373.26508459995966,377.7666795999976,62,0,371.8148954999633,62,373.2513282999862,377.78362810000544,C:\Experiments\tid_psam\psam\experiment_script\..\data\BIDS\sub-99\beh\sub-99_tid_psam_main_experiment_2025-03-20_13h56.40.550_mic_recorded\recording_mic_2025-03-20_14h03.02.347.wav,62,62,0,62,,,,
377.78407439996954,379.6313666999922,3.034999300027266,3.016217600030359,,379.647773100005,384.19980229996145,2025-03-20_13h56.40.550,tid_psam_main_experiment,2025-03-20 13h56.44.566219 +0100,378.2667131999624,60.00582055302952,,,,,,,,C:\Experiments\tid_psam\psam\experiment_script\..\data\BIDS\sub-99\beh\sub-99_tid_psam_main_experiment_2025-03-20_13h56.40.550_mic_recorded\recording_mic_2025-03-20_14h03.08.747.wav,2.499701399996411,3.999571399996057,,99,No,0,0,8.560001151636243e-05,8.560001151636243e-05,0,None,379.64781016664733,379.647773100005,None,2024.2.4,None,sub-99,,379.647773100005,382.6475696999696,Passive,379.647773100005,384.14967789995717,63,0,377.79788109997753,63,379.63144269998884,384.18362600001274,C:\Experiments\tid_psam\psam\experiment_script\..\data\BIDS\sub-99\beh\sub-99_tid_psam_main_experiment_2025-03-20_13h56.40.550_mic_recorded\recording_mic_2025-03-20_14h03.08.747.wav,63,63,0,63,,,,
384.1840521999984,386.06426799995825,3.018463599961251,3.018463599961251,,386.0806933999993,390.61581709998427,2025-03-20_13h56.40.550,tid_psam_main_experiment,2025-03-20 13h56.44.566219 +0100,384.6329665000085,60.00582055302952,,,,,,,,C:\Experiments\tid_psam\psam\experiment_script\..\data\BIDS\sub-99\beh\sub-99_tid_psam_main_experiment_2025-03-20_13h56.40.550_mic_recorded\recording_mic_2025-03-20_14h03.15.161.wav,2.4996240999898873,4.001768499962054,,99,No,0,0,5.420000525191426e-05,5.420000525191426e-05,0,None,386.08076176664713,386.0806933999993,None,2024.2.4,None,sub-99,,386.0806933999993,389.0827155999723,Passive,386.0806933999993,390.58264039998176,64,0,384.19980229996145,64,386.0643148999661,390.59743650001474,C:\Experiments\tid_psam\psam\experiment_script\..\data\BIDS\sub-99\beh\sub-99_tid_psam_main_experiment_2025-03-20_13h56.40.550_mic_recorded\recording_mic_2025-03-20_14h03.15.161.wav,64,64,0,64,,,,
390.59809029998723,392.3826004000148,3.0309465999598615,3.016410399985034,,392.3968902999768,396.93226169998525,2025-03-20_13h56.40.550,tid_psam_main_experiment,2025-03-20 13h56.44.566219 +0100,391.0659466999932,60.00582055302952,,,,,,,,C:\Experiments\tid_psam\psam\experiment_script\..\data\BIDS\sub-99\beh\sub-99_tid_psam_main_experiment_2025-03-20_13h56.40.550_mic_recorded\recording_mic_2025-03-20_14h03.21.478.wav,2.499694300000556,3.999668799981009,,99,Yes,0.08,1,2.8141985000111163,2.899882300000172,2.8,Early,395.1823445666271,395.2649059999967,Normal,2024.2.4,C:\Experiments\tid_psam\psam\data\BIDS\stimuli\sub-99\sub-99_normal_probe.wav,sub-99,,392.3968902999768,395.39899159997003,Passive,392.3968902999768,396.89682419999735,65,0,390.61581709998427,65,392.38290809997125,396.9139840999851,C:\Experiments\tid_psam\psam\experiment_script\..\data\BIDS\sub-99\beh\sub-99_tid_psam_main_experiment_2025-03-20_13h56.40.550_mic_recorded\recording_mic_2025-03-20_14h03.21.478.wav,65,65,0,65,,,,
396.91443080001045,398.0489528999897,3.0142877000034787,3.0142877000034787,,398.06333430000814,402.58199279999826,2025-03-20_13h56.40.550,tid_psam_main_experiment,2025-03-20 13h56.44.566219 +0100,397.3966863999958,60.00582055302952,,,,,,,,C:\Experiments\tid_psam\psam\experiment_script\..\data\BIDS\sub-99\beh\sub-99_tid_psam_main_experiment_2025-03-20_13h56.40.550_mic_recorded\recording_mic_2025-03-20_14h03.27.129.wav,2.516408500028774,4.014149399998132,,99,Yes,0.08,1,2.816314900002908,2.8979068000335246,2.8,Early,400.86318146664803,400.94684609997785,Pitch,2024.2.4,C:\Experiments\tid_psam\psam\data\BIDS\stimuli\sub-99\sub-99_pitch_probe.wav,sub-99,,398.06333430000814,401.06322529999306,Active,398.06333430000814,402.56517740001436,66,0,396.93226169998525,66,398.0501607999904,402.5654942999827,C:\Experiments\tid_psam\psam\experiment_script\..\data\BIDS\sub-99\beh\sub-99_tid_psam_main_experiment_2025-03-20_13h56.40.550_mic_recorded\recording_mic_2025-03-20_14h03.27.129.wav,66,66,0,66,,,,
402.5659086999949,404.3486706999829,3.0308886999846436,3.0141333999927156,,404.36287730000913,408.9126573000103,2025-03-20_13h56.40.550,tid_psam_main_experiment,2025-03-20 13h56.44.566219 +0100,403.04643139999826,60.00582055302952,,,,,,,,C:\Experiments\tid_psam\psam\experiment_script\..\data\BIDS\sub-99\beh\sub-99_tid_psam_main_experiment_2025-03-20_13h56.40.550_mic_recorded\recording_mic_2025-03-20_14h03.33.459.wav,2.499626700009685,3.999529699969571,,99,Yes,0.08,1,2.814139499969315,2.90069440001389,2.8,Early,407.16271176666874,407.24935329996515,Pitch,2024.2.4,C:\Experiments\tid_psam\psam\data\BIDS\stimuli\sub-99\sub-99_pitch_probe.wav,sub-99,,404.36287730000913,407.36279139999533,Passive,404.36287730000913,408.86261129996274,67,0,402.58199279999826,67,404.34988449997036,408.8962413999834,C:\Experiments\tid_psam\psam\experiment_script\..\data\BIDS\sub-99\beh\sub-99_tid_psam_main_experiment_2025-03-20_13h56.40.550_mic_recorded\recording_mic_2025-03-20_14h03.33.459.wav,67,67,0,67,,,,
408.89685600000666,410.1651460999856,3.0306991999968886,3.0004607000155374,,410.1792073000106,414.7289316999959,2025-03-20_13h56.40.550,tid_psam_main_experiment,2025-03-20 13h56.44.566219 +0100,409.3625810999656,60.00582055302952,,,,,,,,C:\Experiments\tid_psam\psam\experiment_script\..\data\BIDS\sub-99\beh\sub-99_tid_psam_main_experiment_2025-03-20_13h56.40.550_mic_recorded\recording_mic_2025-03-20_14h03.39.276.wav,2.513941999990493,4.016168600006495,,99,Yes,0.08,1,2.9297243999899365,3.0004607000155374,2.9,Late,413.0791360666665,413.1655974999885,Normal,2024.2.4,C:\Experiments\tid_psam\psam\data\BIDS\stimuli\sub-99\sub-99_normal_probe.wav,sub-99,,410.1792073000106,413.17917459999444,Active,410.1792073000106,414.67900070000906,68,0,408.9126573000103,68,410.16713730001356,414.7126109999954,C:\Experiments\tid_psam\psam\experiment_script\..\data\BIDS\sub-99\beh\sub-99_tid_psam_main_experiment_2025-03-20_13h56.40.550_mic_recorded\recording_mic_2025-03-20_14h03.39.276.wav,68,68,0,68,,,,
414.7130519999773,416.41238920000615,3.0184121999773197,3.0019543999806046,,416.42888039996615,420.9619726999663,2025-03-20_13h56.40.550,tid_psam_main_experiment,2025-03-20 13h56.44.566219 +0100,415.17896649998147,60.00582055302952,,,,,,,,C:\Experiments\tid_psam\psam\experiment_script\..\data\BIDS\sub-99\beh\sub-99_tid_psam_main_experiment_2025-03-20_13h56.40.550_mic_recorded\recording_mic_2025-03-20_14h03.45.508.wav,2.501711399992928,4.018399599997792,,99,No,0,0,5.2499992307275534e-05,5.2499992307275534e-05,0,None,416.4288742666288,416.42888039996615,None,2024.2.4,None,sub-99,,416.42888039996615,419.43078439997043,Active,416.42888039996615,420.92856239998946,69,0,414.7289316999959,69,416.4124359000125,420.9455688999733,C:\Experiments\tid_psam\psam\experiment_script\..\data\BIDS\sub-99\beh\sub-99_tid_psam_main_experiment_2025-03-20_13h56.40.550_mic_recorded\recording_mic_2025-03-20_14h03.45.508.wav,69,69,0,69,,,,
420.94601199997123,422.41427740000654,3.016192199953366,3.016192199953366,,422.42885869997554,426.9615384999779,2025-03-20_13h56.40.550,tid_psam_main_experiment,2025-03-20 13h56.44.566219 +0100,421.4140295999823,60.00582055302952,,,,,,,,C:\Experiments\tid_psam\psam\experiment_script\..\data\BIDS\sub-99\beh\sub-99_tid_psam_main_experiment_2025-03-20_13h56.40.550_mic_recorded\recording_mic_2025-03-20_14h03.51.509.wav,2.514133299991954,4.0306415999657474,,99,No,0,0,6.239995127543807e-05,6.239995127543807e-05,0,None,422.4306886666493,422.42885869997554,None,2024.2.4,None,sub-99,,422.42885869997554,425.43045399995754,Active,422.42885869997554,426.93031530000735,70,0,420.9619726999663,70,422.4143297999981,426.9452418999863,C:\Experiments\tid_psam\psam\experiment_script\..\data\BIDS\sub-99\beh\sub-99_tid_psam_main_experiment_2025-03-20_13h56.40.550_mic_recorded\recording_mic_2025-03-20_14h03.51.509.wav,70,70,0,70,,,,
426.94568389997585,428.1450157999643,3.016374500002712,3.016374500002712,,428.16145979997236,432.694614899985,2025-03-20_13h56.40.550,tid_psam_main_experiment,2025-03-20 13h56.44.566219 +0100,427.42817169998307,60.00582055302952,,,,,,,,C:\Experiments\tid_psam\psam\experiment_script\..\data\BIDS\sub-99\beh\sub-99_tid_psam_main_experiment_2025-03-20_13h56.40.550_mic_recorded\recording_mic_2025-03-20_14h03.57.241.wav,2.4997236000490375,4.001802100043278,,99,No,0,0,0.001028900034725666,0.001028900034725666,0,None,428.1614601666263,428.16145979997236,None,2024.2.4,None,sub-99,,428.16145979997236,431.16135790001135,Passive,428.16145979997236,432.66128539998317,71,0,426.9615384999779,71,428.14603379997425,432.678177499969,C:\Experiments\tid_psam\psam\experiment_script\..\data\BIDS\sub-99\beh\sub-99_tid_psam_main_experiment_2025-03-20_13h56.40.550_mic_recorded\recording_mic_2025-03-20_14h03.57.241.wav,71,71,0,71,,,,
432.6786139999749,434.58013209997443,3.016394400037825,3.0131133000249974,,434.59650819998933,439.12972450000234,2025-03-20_13h56.40.550,tid_psam_main_experiment,2025-03-20 13h56.44.566219 +0100,433.144492499996,60.00582055302952,,,,,,,,C:\Experiments\tid_psam\psam\experiment_script\..\data\BIDS\sub-99\beh\sub-99_tid_psam_main_experiment_2025-03-20_13h56.40.550_mic_recorded\recording_mic_2025-03-20_14h04.03.677.wav,2.5163246000302024,4.016338900022674,,99,No,0,0,7.160002132877707e-05,7.160002132877707e-05,0,None,434.5966634666586,434.59650819998933,None,2024.2.4,None,sub-99,,434.59650819998933,437.59651229996234,Passive,434.59650819998933,439.09640849998686,72,0,432.694614899985,72,434.5801965999999,439.11361459997715,C:\Experiments\tid_psam\psam\experiment_script\..\data\BIDS\sub-99\beh\sub-99_tid_psam_main_experiment_2025-03-20_13h56.40.550_mic_recorded\recording_mic_2025-03-20_14h04.03.677.wav,72,72,0,72,,,,
439.1140283999848,440.16091619996587,3.018591000000015,3.0020548999891616,,440.1774720000103,444.7105421999586,2025-03-20_13h56.40.550,tid_psam_main_experiment,2025-03-20 13h56.44.566219 +0100,439.5941732999636,60.00582055302952,,,,,,,,C:\Experiments\tid_psam\psam\experiment_script\..\data\BIDS\sub-99\beh\sub-99_tid_psam_main_experiment_2025-03-20_13h56.40.550_mic_recorded\recording_mic_2025-03-20_14h04.09.257.wav,2.499786700005643,3.9996734999585897,,99,Yes,0.08,1,2.8997225999482907,2.9883073999662884,2.9,Late,443.060711866656,443.1492092999979,Pitch,2024.2.4,C:\Experiments\tid_psam\psam\data\BIDS\stimuli\sub-99\sub-99_pitch_probe.wav,sub-99,,440.1774720000103,443.17948759999126,Passive,440.1774720000103,444.67719580000266,73,0,439.12972450000234,73,440.1612121000071,444.69419539999217,C:\Experiments\tid_psam\psam\experiment_script\..\data\BIDS\sub-99\beh\sub-99_tid_psam_main_experiment_2025-03-20_13h56.40.550_mic_recorded\recording_mic_2025-03-20_14h04.09.257.wav,73,73,0,73,,,,
444.6946244999999,445.8627708000131,3.030861399951391,3.014209299988579,,445.87931409996236,450.4123695999733,2025-03-20_13h56.40.550,tid_psam_main_experiment,2025-03-20 13h56.44.566219 +0100,445.1605893999804,60.00582055302952,,,,,,,,C:\Experiments\tid_psam\psam\experiment_script\..\data\BIDS\sub-99\beh\sub-99_tid_psam_main_experiment_2025-03-20_13h56.40.550_mic_recorded\recording_mic_2025-03-20_14h04.14.960.wav,2.499757799960207,3.997539899952244,,99,Yes,0.08,1,2.814244399953168,2.907012299983762,2.8,Early,448.6769901666596,448.76977020001505,Normal,2024.2.4,C:\Experiments\tid_psam\psam\data\BIDS\stimuli\sub-99\sub-99_normal_probe.wav,sub-99,,445.87931409996236,448.8936151000089,Active,445.87931409996236,450.3790722999838,74,0,444.7105421999586,74,445.86408319999464,450.39597889996367,C:\Experiments\tid_psam\psam\experiment_script\..\data\BIDS\sub-99\beh\sub-99_tid_psam_main_experiment_2025-03-20_13h56.40.550_mic_recorded\recording_mic_2025-03-20_14h04.14.960.wav,74,74,0,74,,,,
450.396437999967,451.46041010000044,3.0183535999967717,3.0018425000016578,,451.4768538000062,456.00998259999324,2025-03-20_13h56.40.550,tid_psam_main_experiment,2025-03-20 13h56.44.566219 +0100,450.8602748999838,60.00582055302952,,,,,,,,C:\Experiments\tid_psam\psam\experiment_script\..\data\BIDS\sub-99\beh\sub-99_tid_psam_main_experiment_2025-03-20_13h56.40.550_mic_recorded\recording_mic_2025-03-20_14h04.20.557.wav,2.4996097999974154,4.001746600028127,,99,Yes,0.08,1,2.899609500018414,2.9908453000243753,2.9,Late,454.3600643666616,454.45124729996314,Normal,2024.2.4,C:\Experiments\tid_psam\psam\data\BIDS\stimuli\sub-99\sub-99_normal_probe.wav,sub-99,,451.4768538000062,454.4787507999572,Passive,451.4768538000062,455.97662629996194,75,0,450.4123695999733,75,451.46182269998826,455.9936044999631,C:\Experiments\tid_psam\psam\experiment_script\..\data\BIDS\sub-99\beh\sub-99_tid_psam_main_experiment_2025-03-20_13h56.40.550_mic_recorded\recording_mic_2025-03-20_14h04.20.557.wav,75,75,0,75,,,,
455.99407039996004,457.52676559996326,3.018209100002423,3.0017021999810822,,457.54308919998584,462.0761746999924,2025-03-20_13h56.40.550,tid_psam_main_experiment,2025-03-20 13h56.44.566219 +0100,456.4621693000081,60.00582055302952,,,,,,,,C:\Experiments\tid_psam\psam\experiment_script\..\data\BIDS\sub-99\beh\sub-99_tid_psam_main_experiment_2025-03-20_13h56.40.550_mic_recorded\recording_mic_2025-03-20_14h04.26.626.wav,2.4996390999876894,4.018215999996755,,99,No,0,0,0.0010074999881908298,0.0010074999881908298,0,None,457.54320966668115,457.54308919998584,None,2024.2.4,None,sub-99,,457.54308919998584,460.5449565000017,Active,457.54308919998584,462.0449368999689,76,0,456.00998259999324,76,457.5277615999803,462.0620314999833,C:\Experiments\tid_psam\psam\experiment_script\..\data\BIDS\sub-99\beh\sub-99_tid_psam_main_experiment_2025-03-20_13h56.40.550_mic_recorded\recording_mic_2025-03-20_14h04.26.626.wav,76,76,0,76,,,,
462.0624560000142,463.8450176999904,3.030854200012982,3.0142674000235274,,463.8615650999709,468.39465510001173,2025-03-20_13h56.40.550,tid_psam_main_experiment,2025-03-20 13h56.44.566219 +0100,462.5261293000076,60.00582055302952,,,,,,,,C:\Experiments\tid_psam\psam\experiment_script\..\data\BIDS\sub-99\beh\sub-99_tid_psam_main_experiment_2025-03-20_13h56.40.550_mic_recorded\recording_mic_2025-03-20_14h04.32.939.wav,2.5163438000017777,4.033060999994632,,99,Yes,0.08,1,2.8997456000070088,2.9866088000126183,2.9,Late,466.7447995666337,466.8316128999577,Pitch,2024.2.4,C:\Experiments\tid_psam\psam\data\BIDS\stimuli\sub-99\sub-99_pitch_probe.wav,sub-99,,463.8615650999709,466.8758602999733,Active,463.8615650999709,468.37588830001187,77,0,462.0761746999924,77,463.84530869999435,468.37624999997206,C:\Experiments\tid_psam\psam\experiment_script\..\data\BIDS\sub-99\beh\sub-99_tid_psam_main_experiment_2025-03-20_13h56.40.550_mic_recorded\recording_mic_2025-03-20_14h04.32.939.wav,77,77,0,77,,,,
468.3767455999623,469.9592486000038,3.0162568999803625,3.0017968000029214,,469.97580069996184,474.5087898999918,2025-03-20_13h56.40.550,tid_psam_main_experiment,2025-03-20 13h56.44.566219 +0100,468.86143930000253,60.00582055302952,,,,,,,,C:\Experiments\tid_psam\psam\experiment_script\..\data\BIDS\sub-99\beh\sub-99_tid_psam_main_experiment_2025-03-20_13h56.40.550_mic_recorded\recording_mic_2025-03-20_14h04.39.055.wav,2.4996504000155255,4.001730100018904,,99,No,0,0,0.0009957000147551298,0.0009957000147551298,0,None,469.9758087666744,469.97580069996184,None,2024.2.4,None,sub-99,,469.97580069996184,472.9754924000008,Passive,469.97580069996184,474.4754566999618,78,0,468.39465510001173,78,469.9602318999823,474.49239999998827,C:\Experiments\tid_psam\psam\experiment_script\..\data\BIDS\sub-99\beh\sub-99_tid_psam_main_experiment_2025-03-20_13h56.40.550_mic_recorded\recording_mic_2025-03-20_14h04.39.055.wav,78,78,0,78,,,,
474.49284319998696,476.24429989996133,3.0163859000313096,3.0163859000313096,,476.26028990000486,480.79188969999086,2025-03-20_13h56.40.550,tid_psam_main_experiment,2025-03-20 13h56.44.566219 +0100,474.9586575999856,60.00582055302952,,,,,,,,C:\Experiments\tid_psam\psam\experiment_script\..\data\BIDS\sub-99\beh\sub-99_tid_psam_main_experiment_2025-03-20_13h56.40.550_mic_recorded\recording_mic_2025-03-20_14h04.45.340.wav,2.514129600021988,4.016270000021905,,99,No,0,0,0.0013216000515967607,0.0013216000515967607,0,None,476.2608180666614,476.26028990000486,None,2024.2.4,None,sub-99,,476.26028990000486,479.2606701999903,Active,476.26028990000486,480.76052979996894,79,0,474.5087898999918,79,476.24561400001403,480.77740389999235,C:\Experiments\tid_psam\psam\experiment_script\..\data\BIDS\sub-99\beh\sub-99_tid_psam_main_experiment_2025-03-20_13h56.40.550_mic_recorded\recording_mic_2025-03-20_14h04.45.340.wav,79,79,0,79,,,,
480.7778182000038,482.47736799996346,3.0329161999979988,3.014151499955915,,482.49390140001196,487.0413486000034,2025-03-20_13h56.40.550,tid_psam_main_experiment,2025-03-20 13h56.44.566219 +0100,481.24396659998456,60.00582055302952,,,,,,,,C:\Experiments\tid_psam\psam\experiment_script\..\data\BIDS\sub-99\beh\sub-99_tid_psam_main_experiment_2025-03-20_13h56.40.550_mic_recorded\recording_mic_2025-03-20_14h04.51.590.wav,2.4997157999896444,4.014231799985282,,99,No,0,0,0.0010528999846428633,0.0010528999846428633,0,None,482.49391736666826,482.49390140001196,None,2024.2.4,None,sub-99,,482.49390140001196,485.5102659999975,Passive,482.49390140001196,487.0102333999821,80,0,480.79188969999086,80,482.47841099998914,487.027125899971,C:\Experiments\tid_psam\psam\experiment_script\..\data\BIDS\sub-99\beh\sub-99_tid_psam_main_experiment_2025-03-20_13h56.40.550_mic_recorded\recording_mic_2025-03-20_14h04.51.590.wav,80,80,0,80,,,,
487.0275449999608,488.0439180000103,3.0328307999880053,3.0160008000093512,,488.060225299967,492.6078164000064,2025-03-20_13h56.40.550,tid_psam_main_experiment,2025-03-20 13h56.44.566219 +0100,487.474645899958,60.00582055302952,,,,,,,,C:\Experiments\tid_psam\psam\experiment_script\..\data\BIDS\sub-99\beh\sub-99_tid_psam_main_experiment_2025-03-20_13h56.40.550_mic_recorded\recording_mic_2025-03-20_14h04.57.155.wav,2.5162119999877177,4.0327589000226,,99,Yes,0.08,1,2.913979200005997,2.9994365000166,2.9,Late,490.94343156664786,491.03173059999244,Pitch,2024.2.4,C:\Experiments\tid_psam\psam\data\BIDS\stimuli\sub-99\sub-99_pitch_probe.wav,sub-99,,488.060225299967,491.0599051999743,Active,488.060225299967,492.5766372999642,81,0,487.0413486000034,81,488.04608579998603,492.5913659000071,C:\Experiments\tid_psam\psam\experiment_script\..\data\BIDS\sub-99\beh\sub-99_tid_psam_main_experiment_2025-03-20_13h56.40.550_mic_recorded\recording_mic_2025-03-20_14h04.57.155.wav,81,81,0,81,,,,
492.5920078000054,493.593297799991,3.030831500014756,3.0141497000004165,,493.61181649996433,498.15949459996773,2025-03-20_13h56.40.550,tid_psam_main_experiment,2025-03-20 13h56.44.566219 +0100,493.0576193999732,60.00582055302952,,,,,,,,C:\Experiments\tid_psam\psam\experiment_script\..\data\BIDS\sub-99\beh\sub-99_tid_psam_main_experiment_2025-03-20_13h56.40.550_mic_recorded\recording_mic_2025-03-20_14h05.02.704.wav,2.499667500029318,3.997403800021857,,99,No,0,0,0.0010724000167101622,0.0010724000167101622,0,None,493.60983346664966,493.61181649996433,None,2024.2.4,None,sub-99,,493.61181649996433,496.6240873999777,Passive,493.61181649996433,498.1239853000152,82,0,492.6078164000064,82,493.5943576999707,498.14096639998024,C:\Experiments\tid_psam\psam\experiment_script\..\data\BIDS\sub-99\beh\sub-99_tid_psam_main_experiment_2025-03-20_13h56.40.550_mic_recorded\recording_mic_2025-03-20_14h05.02.704.wav,82,82,0,82,,,,
498.14142739999807,499.67419799999334,3.0162112999823876,3.0017137000104412,,499.6927743999986,504.20913149998523,2025-03-20_13h56.40.550,tid_psam_main_experiment,2025-03-20 13h56.44.566219 +0100,498.6073863999918,60.00582055302952,,,,,,,,C:\Experiments\tid_psam\psam\experiment_script\..\data\BIDS\sub-99\beh\sub-99_tid_psam_main_experiment_2025-03-20_13h56.40.550_mic_recorded\recording_mic_2025-03-20_14h05.08.756.wav,2.501831699977629,4.001785399974324,,99,Yes,0.08,1,2.801816599967424,2.8986726999864914,2.8,Early,502.47590896668066,502.5728578999988,Normal,2024.2.4,C:\Experiments\tid_psam\psam\data\BIDS\stimuli\sub-99\sub-99_normal_probe.wav,sub-99,,499.6927743999986,502.69039740000153,Active,499.6927743999986,504.1924294999917,83,0,498.15949459996773,83,499.6759030999965,504.1926574999816,C:\Experiments\tid_psam\psam\experiment_script\..\data\BIDS\sub-99\beh\sub-99_tid_psam_main_experiment_2025-03-20_13h56.40.550_mic_recorded\recording_mic_2025-03-20_14h05.08.756.wav,83,83,0,83,,,,
504.19307129998924,505.4070944999694,3.018394200014882,3.001802100043278,,505.4235128000146,509.95678269997006,2025-03-20_13h56.40.550,tid_psam_main_experiment,2025-03-20 13h56.44.566219 +0100,504.6759023999912,60.00582055302952,,,,,,,,C:\Experiments\tid_psam\psam\experiment_script\..\data\BIDS\sub-99\beh\sub-99_tid_psam_main_experiment_2025-03-20_13h56.40.550_mic_recorded\recording_mic_2025-03-20_14h05.14.504.wav,2.5018338999943808,3.999590100022033,,99,Yes,0.08,1,2.7996659000054933,2.894816500018351,2.8,Early,508.2088813666526,508.30189729999984,Pitch,2024.2.4,C:\Experiments\tid_psam\psam\data\BIDS\stimuli\sub-99\sub-99_pitch_probe.wav,sub-99,,505.4235128000146,508.4254746999941,Active,505.4235128000146,509.9233528999612,84,0,504.20913149998523,84,505.40742060000775,509.9403554999735,C:\Experiments\tid_psam\psam\experiment_script\..\data\BIDS\sub-99\beh\sub-99_tid_psam_main_experiment_2025-03-20_13h56.40.550_mic_recorded\recording_mic_2025-03-20_14h05.14.504.wav,84,84,0,84,,,,
509.94078669999726,511.8089144999976,3.030682299984619,3.014240199991036,,511.82314749999205,516.3583726999932,2025-03-20_13h56.40.550,tid_psam_main_experiment,2025-03-20 13h56.44.566219 +0100,510.40873289998854,60.00582055302952,,,,,,,,C:\Experiments\tid_psam\psam\experiment_script\..\data\BIDS\sub-99\beh\sub-99_tid_psam_main_experiment_2025-03-20_13h56.40.550_mic_recorded\recording_mic_2025-03-20_14h05.20.905.wav,2.514040899986867,4.0162189999828115,,99,No,0,0,9.06999921426177e-05,9.06999921426177e-05,0,None,511.82537556667035,511.82314749999205,None,2024.2.4,None,sub-99,,511.82314749999205,514.8231291999691,Active,511.82314749999205,516.3228360000066,85,0,509.95678269997006,85,511.808994699968,516.3419193999725,C:\Experiments\tid_psam\psam\experiment_script\..\data\BIDS\sub-99\beh\sub-99_tid_psam_main_experiment_2025-03-20_13h56.40.550_mic_recorded\recording_mic_2025-03-20_14h05.20.905.wav,85,85,0,85,,,,
516.3423443000065,518.2231152000022,3.0184693000046536,3.001888400001917,,518.241785399965,522.7726186999935,2025-03-20_13h56.40.550,tid_psam_main_experiment,2025-03-20 13h56.44.566219 +0100,516.822846999974,60.00582055302952,,,,,,,,C:\Experiments\tid_psam\psam\experiment_script\..\data\BIDS\sub-99\beh\sub-99_tid_psam_main_experiment_2025-03-20_13h56.40.550_mic_recorded\recording_mic_2025-03-20_14h05.27.319.wav,2.501773800002411,3.9995748999645,,99,No,0,0,5.489995237439871e-05,5.489995237439871e-05,0,None,518.2395177666369,518.241785399965,None,2024.2.4,None,sub-99,,518.241785399965,521.2415689000045,Active,518.241785399965,522.7558952000109,86,0,516.3583726999932,86,518.2231662999839,522.7562245999579,C:\Experiments\tid_psam\psam\experiment_script\..\data\BIDS\sub-99\beh\sub-99_tid_psam_main_experiment_2025-03-20_13h56.40.550_mic_recorded\recording_mic_2025-03-20_14h05.27.319.wav,86,86,0,86,,,,
522.756893999991,523.8894758999813,3.018458099977579,3.0016345999902114,,523.9059386999579,528.438968500006,2025-03-20_13h56.40.550,tid_psam_main_experiment,2025-03-20 13h56.44.566219 +0100,523.2225113000022,60.00582055302952,,,,,,,,C:\Experiments\tid_psam\psam\experiment_script\..\data\BIDS\sub-99\beh\sub-99_tid_psam_main_experiment_2025-03-20_13h56.40.550_mic_recorded\recording_mic_2025-03-20_14h05.32.986.wav,2.501656299980823,4.018345799995586,,99,Yes,0.08,1,2.799583400017582,2.8828671000082977,2.8,Early,526.6911269666782,526.7723321999656,Normal,2024.2.4,C:\Experiments\tid_psam\psam\data\BIDS\stimuli\sub-99\sub-99_normal_probe.wav,sub-99,,523.9059386999579,526.9079149999889,Passive,523.9059386999579,528.4076357999584,87,0,522.7726186999935,87,523.8910139999934,528.422628899978,C:\Experiments\tid_psam\psam\experiment_script\..\data\BIDS\sub-99\beh\sub-99_tid_psam_main_experiment_2025-03-20_13h56.40.550_mic_recorded\recording_mic_2025-03-20_14h05.32.986.wav,87,87,0,87,,,,
528.4230484999716,530.0910053999978,3.016387299983762,3.016387299983762,,530.1090356999775,534.6241929999669,2025-03-20_13h56.40.550,tid_psam_main_experiment,2025-03-20 13h56.44.566219 +0100,528.8888396999682,60.00582055302952,,,,,,,,C:\Experiments\tid_psam\psam\experiment_script\..\data\BIDS\sub-99\beh\sub-99_tid_psam_main_experiment_2025-03-20_13h56.40.550_mic_recorded\recording_mic_2025-03-20_14h05.39.171.wav,2.514410300005693,4.016334499989171,,99,No,0,0,0.0009494000114500523,0.0009494000114500523,0,None,530.1075569666611,530.1090356999775,None,2024.2.4,None,sub-99,,530.1090356999775,533.1240784999682,Active,530.1090356999775,534.6241929999669,88,0,528.438968500006,88,530.091942399973,534.6078400000115,C:\Experiments\tid_psam\psam\experiment_script\..\data\BIDS\sub-99\beh\sub-99_tid_psam_main_experiment_2025-03-20_13h56.40.550_mic_recorded\recording_mic_2025-03-20_14h05.39.171.wav,88,88,0,88,,,,
534.6082660999964,536.1907003999804,3.030788100033533,3.0141387000330724,,536.205049399985,540.740277600009,2025-03-20_13h56.40.550,tid_psam_main_experiment,2025-03-20 13h56.44.566219 +0100,535.0907019999577,60.00582055302952,,,,,,,,C:\Experiments\tid_psam\psam\experiment_script\..\data\BIDS\sub-99\beh\sub-99_tid_psam_main_experiment_2025-03-20_13h56.40.550_mic_recorded\recording_mic_2025-03-20_14h05.45.287.wav,2.499798200035002,3.997422499989625,,99,No,0,0,0.0010211000335402787,0.0010211000335402787,0,None,536.2072443666441,536.205049399985,None,2024.2.4,None,sub-99,,536.205049399985,539.2048244999605,Passive,536.205049399985,540.704790799995,89,0,534.6241929999669,89,536.1917095999816,540.7237073999713,C:\Experiments\tid_psam\psam\experiment_script\..\data\BIDS\sub-99\beh\sub-99_tid_psam_main_experiment_2025-03-20_13h56.40.550_mic_recorded\recording_mic_2025-03-20_14h05.45.287.wav,89,89,0,89,,,,
540.7242037999677,542.123766899982,3.0328535999869928,3.014180900005158,,542.1401533999597,546.6731772999628,2025-03-20_13h56.40.550,tid_psam_main_experiment,2025-03-20 13h56.44.566219 +0100,541.2047045999789,60.00582055302952,,,,,,,,C:\Experiments\tid_psam\psam\experiment_script\..\data\BIDS\sub-99\beh\sub-99_tid_psam_main_experiment_2025-03-20_13h56.40.550_mic_recorded\recording_mic_2025-03-20_14h05.51.220.wav,2.4996317999903113,3.9995506000122987,,99,Yes,0.08,1,2.799669799976982,2.8829645999940112,2.8,Early,544.9400925666598,545.0319954999723,Pitch,2024.2.4,C:\Experiments\tid_psam\psam\data\BIDS\stimuli\sub-99\sub-99_pitch_probe.wav,sub-99,,542.1401533999597,545.1379349000053,Passive,542.1401533999597,546.6566903999774,90,0,540.740277600009,90,542.1240756000043,546.6569466000074,C:\Experiments\tid_psam\psam\experiment_script\..\data\BIDS\sub-99\beh\sub-99_tid_psam_main_experiment_2025-03-20_13h56.40.550_mic_recorded\recording_mic_2025-03-20_14h05.51.220.wav,90,90,0,90,,,,
546.6573627999751,547.8400626999792,3.0162962999893352,3.0162962999893352,,547.8544992000097,552.3729211000027,2025-03-20_13h56.40.550,tid_psam_main_experiment,2025-03-20 13h56.44.566219 +0100,547.1211263999576,60.00582055302952,,,,,,,,C:\Experiments\tid_psam\psam\experiment_script\..\data\BIDS\sub-99\beh\sub-99_tid_psam_main_experiment_2025-03-20_13h56.40.550_mic_recorded\recording_mic_2025-03-20_14h05.56.920.wav,2.516387499985285,4.016311899991706,,99,Yes,0.08,1,2.899625600024592,2.992201399989426,2.9,Late,550.7397225666248,550.832252799999,Normal,2024.2.4,C:\Experiments\tid_psam\psam\data\BIDS\stimuli\sub-99\sub-99_normal_probe.wav,sub-99,,547.8544992000097,550.856346799992,Active,547.8544992000097,552.3563921999885,91,0,546.6731772999628,91,547.8413414999959,552.3566147999954,C:\Experiments\tid_psam\psam\experiment_script\..\data\BIDS\sub-99\beh\sub-99_tid_psam_main_experiment_2025-03-20_13h56.40.550_mic_recorded\recording_mic_2025-03-20_14h05.56.920.wav,91,91,0,91,,,,
552.3570279999985,554.1563558999915,3.0328876999556087,3.0054254999849945,,554.1728955999715,558.7225108999992,2025-03-20_13h56.40.550,tid_psam_main_experiment,2025-03-20 13h56.44.566219 +0100,552.8562647000072,60.00582055302952,,,,,,,,C:\Experiments\tid_psam\psam\experiment_script\..\data\BIDS\sub-99\beh\sub-99_tid_psam_main_experiment_2025-03-20_13h56.40.550_mic_recorded\recording_mic_2025-03-20_14h06.03.269.wav,2.5142329999944195,4.030717899964657,,99,Yes,0.08,1,2.8995615000021644,2.9829426999785937,2.9,Late,557.0725752666515,557.1617604999919,Normal,2024.2.4,C:\Experiments\tid_psam\psam\data\BIDS\stimuli\sub-99\sub-99_normal_probe.wav,sub-99,,554.1728955999715,557.1705399999628,Passive,554.1728955999715,558.6725240999949,92,0,552.3729211000027,92,554.1578950000112,558.7061462000129,C:\Experiments\tid_psam\psam\experiment_script\..\data\BIDS\sub-99\beh\sub-99_tid_psam_main_experiment_2025-03-20_13h56.40.550_mic_recorded\recording_mic_2025-03-20_14h06.03.269.wav,92,92,0,92,,,,
558.7065728000016,560.5226636999869,3.0164775000303052,3.010391100018751,,560.5369243999594,565.0721641000127,2025-03-20_13h56.40.550,tid_psam_main_experiment,2025-03-20 13h56.44.566219 +0100,559.1704199999804,60.00582055302952,,,,,,,,C:\Experiments\tid_psam\psam\experiment_script\..\data\BIDS\sub-99\beh\sub-99_tid_psam_main_experiment_2025-03-20_13h56.40.550_mic_recorded\recording_mic_2025-03-20_14h06.09.619.wav,2.5162130999960937,4.016353800019715,,99,Yes,0.08,1,2.9163283000234514,3.010391100018751,2.9,Late,563.436830166673,563.533039300004,Pitch,2024.2.4,C:\Experiments\tid_psam\psam\data\BIDS\stimuli\sub-99\sub-99_pitch_probe.wav,sub-99,,560.5369243999594,563.5391188999638,Passive,560.5369243999594,565.0389617999899,93,0,558.7225108999992,93,560.5229663999635,565.0557406999869,C:\Experiments\tid_psam\psam\experiment_script\..\data\BIDS\sub-99\beh\sub-99_tid_psam_main_experiment_2025-03-20_13h56.40.550_mic_recorded\recording_mic_2025-03-20_14h06.09.619.wav,93,93,0,93,,,,
565.0561540999915,566.5222606000025,3.030977000016719,3.014203099999577,,566.5388052999624,571.0697061999817,2025-03-20_13h56.40.550,tid_psam_main_experiment,2025-03-20 13h56.44.566219 +0100,565.5222297,60.00582055302952,,,,,,,,C:\Experiments\tid_psam\psam\experiment_script\..\data\BIDS\sub-99\beh\sub-99_tid_psam_main_experiment_2025-03-20_13h56.40.550_mic_recorded\recording_mic_2025-03-20_14h06.15.619.wav,2.5143567000050098,4.016491500020493,,99,No,0,0,0.0010813999688252807,0.0010813999688252807,0,None,566.5387305666266,566.5388052999624,None,2024.2.4,None,sub-99,,566.5388052999624,569.536448400002,Active,566.5388052999624,571.0365168999997,94,0,565.0721641000127,94,566.5233289999887,571.0556678000139,C:\Experiments\tid_psam\psam\experiment_script\..\data\BIDS\sub-99\beh\sub-99_tid_psam_main_experiment_2025-03-20_13h56.40.550_mic_recorded\recording_mic_2025-03-20_14h06.15.619.wav,94,94,0,94,,,,
571.0560915999813,572.8697005999857,3.0184007000061683,3.001756999990903,,572.888406299986,577.421489899978,2025-03-20_13h56.40.550,tid_psam_main_experiment,2025-03-20 13h56.44.566219 +0100,571.5217589999666,60.00582055302952,,,,,,,,C:\Experiments\tid_psam\psam\experiment_script\..\data\BIDS\sub-99\beh\sub-99_tid_psam_main_experiment_2025-03-20_13h56.40.550_mic_recorded\recording_mic_2025-03-20_14h06.21.968.wav,2.5017819000058807,4.001781300001312,,99,No,0,0,0.0009661999647505581,0.0009661999647505581,0,None,572.8861810666315,572.888406299986,None,2024.2.4,None,sub-99,,572.888406299986,575.8880869999994,Passive,572.888406299986,577.3880848999834,95,0,571.0697061999817,95,572.8706578999991,577.4049980000127,C:\Experiments\tid_psam\psam\experiment_script\..\data\BIDS\sub-99\beh\sub-99_tid_psam_main_experiment_2025-03-20_13h56.40.550_mic_recorded\recording_mic_2025-03-20_14h06.21.968.wav,95,95,0,95,,,,
577.4054131999728,578.7195379000041,3.0183131000376306,3.0183131000376306,,578.7360383999767,583.2711654999875,2025-03-20_13h56.40.550,tid_psam_main_experiment,2025-03-20 13h56.44.566219 +0100,577.8693816000014,60.00582055302952,,,,,,,,C:\Experiments\tid_psam\psam\experiment_script\..\data\BIDS\sub-99\beh\sub-99_tid_psam_main_experiment_2025-03-20_13h56.40.550_mic_recorded\recording_mic_2025-03-20_14h06.27.818.wav,2.5017072000191547,4.001706000010017,,99,Yes,0.08,1,2.9017462999909185,2.993474300019443,2.9,Late,581.6191080666651,581.7130054999725,Pitch,2024.2.4,C:\Experiments\tid_psam\psam\data\BIDS\stimuli\sub-99\sub-99_pitch_probe.wav,sub-99,,578.7360383999767,581.7378410999663,Passive,578.7360383999767,583.2357032999862,96,0,577.421489899978,96,578.7198928999715,583.2548408000148,C:\Experiments\tid_psam\psam\experiment_script\..\data\BIDS\sub-99\beh\sub-99_tid_psam_main_experiment_2025-03-20_13h56.40.550_mic_recorded\recording_mic_2025-03-20_14h06.27.818.wav,96,96,0,96,,,,
583.2552602000069,584.4212811999605,3.0307929000118747,3.014240000047721,,584.4377826999989,588.9876114999643,2025-03-20_13h56.40.550,tid_psam_main_experiment,2025-03-20 13h56.44.566219 +0100,583.7212803000002,60.00582055302952,,,,,,,,C:\Experiments\tid_psam\psam\experiment_script\..\data\BIDS\sub-99\beh\sub-99_tid_psam_main_experiment_2025-03-20_13h56.40.550_mic_recorded\recording_mic_2025-03-20_14h06.33.535.wav,2.4996678000316024,4.014141299994662,,99,Yes,0.08,1,2.799694300047122,2.883127200009767,2.8,Early,587.2209588666485,587.3043963999953,Normal,2024.2.4,C:\Experiments\tid_psam\psam\data\BIDS\stimuli\sub-99\sub-99_normal_probe.wav,sub-99,,584.4377826999989,587.452058899973,Active,584.4377826999989,588.9520561000099,97,0,583.2711654999875,97,584.4224723000079,588.9710859999759,C:\Experiments\tid_psam\psam\experiment_script\..\data\BIDS\sub-99\beh\sub-99_tid_psam_main_experiment_2025-03-20_13h56.40.550_mic_recorded\recording_mic_2025-03-20_14h06.33.535.wav,97,97,0,97,,,,
588.971507499984,590.6852906999993,3.035342400020454,3.0019985000253655,,590.7019843999879,595.2372452999698,2025-03-20_13h56.40.550,tid_psam_main_experiment,2025-03-20 13h56.44.566219 +0100,589.435365399986,60.00582055302952,,,,,,,,C:\Experiments\tid_psam\psam\experiment_script\..\data\BIDS\sub-99\beh\sub-99_tid_psam_main_experiment_2025-03-20_13h56.40.550_mic_recorded\recording_mic_2025-03-20_14h06.39.798.wav,2.4997920999885537,4.002025399997365,,99,No,0,0,5.129998316988349e-05,5.129998316988349e-05,0,None,590.7018565666551,590.7019843999879,None,2024.2.4,None,sub-99,,590.7019843999879,593.7017726000049,Active,590.7019843999879,595.2038138000062,98,0,588.9876114999643,98,590.6853346999851,595.2342502999818,C:\Experiments\tid_psam\psam\experiment_script\..\data\BIDS\sub-99\beh\sub-99_tid_psam_main_experiment_2025-03-20_13h56.40.550_mic_recorded\recording_mic_2025-03-20_14h06.39.798.wav,98,98,0,98,,,,
595.2346776999766,596.8684103999985,3.016370499972254,3.001749099988956,,596.8848440999864,601.4034638999728,2025-03-20_13h56.40.550,tid_psam_main_experiment,2025-03-20 13h56.44.566219 +0100,595.6849797999603,60.00582055302952,,,,,,,,C:\Experiments\tid_psam\psam\experiment_script\..\data\BIDS\sub-99\beh\sub-99_tid_psam_main_experiment_2025-03-20_13h56.40.550_mic_recorded\recording_mic_2025-03-20_14h06.45.951.wav,2.499739699997008,4.016157299978659,,99,Yes,0.08,1,2.899615000002086,2.9863574999617413,2.9,Late,599.7679052666683,599.8547564999899,Normal,2024.2.4,C:\Experiments\tid_psam\psam\data\BIDS\stimuli\sub-99\sub-99_normal_probe.wav,sub-99,,596.8848440999864,599.8847653999692,Active,596.8848440999864,601.3868124999572,99,0,595.2372452999698,99,596.8687187999603,601.3871061999816,C:\Experiments\tid_psam\psam\experiment_script\..\data\BIDS\sub-99\beh\sub-99_tid_psam_main_experiment_2025-03-20_13h56.40.550_mic_recorded\recording_mic_2025-03-20_14h06.45.951.wav,99,99,0,99,,,,
601.3875414999784,603.2679339000024,3.018463799962774,3.0019067999674007,,603.2843829999911,607.8176448000013,2025-03-20_13h56.40.550,tid_psam_main_experiment,2025-03-20 13h56.44.566219 +0100,601.8678826999967,60.00582055302952,,,,,,,,C:\Experiments\tid_psam\psam\experiment_script\..\data\BIDS\sub-99\beh\sub-99_tid_psam_main_experiment_2025-03-20_13h56.40.550_mic_recorded\recording_mic_2025-03-20_14h06.52.364.wav,2.4997181000071578,4.016303199983668,,99,No,0,0,5.7699973694980145e-05,5.7699973694980145e-05,0,None,603.2844223666509,603.2843829999911,None,2024.2.4,None,sub-99,,603.2843829999911,606.2863852999872,Active,603.2843829999911,607.7842047999729,100,0,601.4034638999728,100,603.2679860999924,607.8010832999717,C:\Experiments\tid_psam\psam\experiment_script\..\data\BIDS\sub-99\beh\sub-99_tid_psam_main_experiment_2025-03-20_13h56.40.550_mic_recorded\recording_mic_2025-03-20_14h06.52.364.wav,100,100,0,100,,,,
607.8015247000149,609.6843738000025,3.032872799958568,3.0016416999860667,,609.7008188999607,614.2526992000057,2025-03-20_13h56.40.550,tid_psam_main_experiment,2025-03-20 13h56.44.566219 +0100,608.2698568999767,60.00582055302952,,,,,,,,C:\Experiments\tid_psam\psam\experiment_script\..\data\BIDS\sub-99\beh\sub-99_tid_psam_main_experiment_2025-03-20_13h56.40.550_mic_recorded\recording_mic_2025-03-20_14h06.58.798.wav,2.499512300011702,4.016116399958264,,99,No,0,0,5.3800002206116915e-05,5.3800002206116915e-05,0,None,609.7008354666798,609.7008188999607,None,2024.2.4,None,sub-99,,609.7008188999607,612.700543999963,Active,609.7008188999607,614.200517099991,101,0,607.8176448000013,101,609.6844222999644,614.2341318000108,C:\Experiments\tid_psam\psam\experiment_script\..\data\BIDS\sub-99\beh\sub-99_tid_psam_main_experiment_2025-03-20_13h56.40.550_mic_recorded\recording_mic_2025-03-20_14h06.58.798.wav,101,101,0,101,,,,
